onset	duration	sample	trial_type	response_time	serialpos	probepos	probe_word	resp_word	study_1	study_2	list	test	answer	experiment	session	subject
0.0	198.293	124550	SESS_START	n/a	-999	-999	n/a	n/a	n/a	n/a	-999	[0, 0, 0]	-999	PAL1	1	R1185N
198.293	1.017	322836	START	n/a	-999	-999	n/a	n/a	n/a	n/a	-1	[-999, -999, -999]	-999	PAL1	1	R1185N
199.31	11.335	323853	PROB	11315	-999	-999	n/a	n/a	n/a	n/a	-1	[4, 6, 6]	16	PAL1	1	R1185N
210.645	3.867	335187	PROB	3836	-999	-999	n/a	n/a	n/a	n/a	-1	[8, 6, 6]	20	PAL1	1	R1185N
214.512	11.177	339054	PROB	11177	-999	-999	n/a	n/a	n/a	n/a	-1	[5, 7, 6]	18	PAL1	1	R1185N
225.689	57.704	350231	STOP	n/a	-999	-999	n/a	n/a	n/a	n/a	-1	[-999, -999, -999]	-999	PAL1	1	R1185N
283.393	10.45	407933	ENCODING_START	n/a	0	-999	n/a	n/a	n/a	n/a	1	[0, 0, 0]	-999	PAL1	1	R1185N
293.843	0.9	418382	STUDY_ORIENT	n/a	1	3	CAKE	STAIR	CAKE	STAIR	1	[0, 0, 0]	-999	PAL1	1	R1185N
294.743	5.034	419282	STUDY_PAIR	n/a	1	3	CAKE	STAIR	CAKE	STAIR	1	[0, 0, 0]	-999	PAL1	1	R1185N
299.777	0.817	424316	STUDY_ORIENT	n/a	2	2	FORT	ROSE	FORT	ROSE	1	[0, 0, 0]	-999	PAL1	1	R1185N
300.594	5.034	425133	STUDY_PAIR	n/a	2	2	FORT	ROSE	FORT	ROSE	1	[0, 0, 0]	-999	PAL1	1	R1185N
305.628	0.983	430167	STUDY_ORIENT	n/a	3	1	SPONGE	BLUSH	SPONGE	BLUSH	1	[0, 0, 0]	-999	PAL1	1	R1185N
306.611	5.018	431150	STUDY_PAIR	n/a	3	1	SPONGE	BLUSH	SPONGE	BLUSH	1	[0, 0, 0]	-999	PAL1	1	R1185N
311.629	0.817	436168	STUDY_ORIENT	n/a	4	6	BARN	STAR	BARN	STAR	1	[0, 0, 0]	-999	PAL1	1	R1185N
312.446	5.034	436985	STUDY_PAIR	n/a	4	6	BARN	STAR	BARN	STAR	1	[0, 0, 0]	-999	PAL1	1	R1185N
317.48	0.9	442019	STUDY_ORIENT	n/a	5	5	ROPE	PLATE	ROPE	PLATE	1	[0, 0, 0]	-999	PAL1	1	R1185N
318.38	5.034	442919	STUDY_PAIR	n/a	5	5	ROPE	PLATE	ROPE	PLATE	1	[0, 0, 0]	-999	PAL1	1	R1185N
323.414	0.867	447952	STUDY_ORIENT	n/a	6	4	SHOE	n/a	SHOE	WORM	1	[0, 0, 0]	-999	PAL1	1	R1185N
324.281	4.018	448819	STUDY_PAIR	n/a	6	4	SHOE	n/a	SHOE	WORM	1	[0, 0, 0]	-999	PAL1	1	R1185N
328.299	0.999	452837	START	n/a	-999	-999	n/a	n/a	n/a	n/a	1	[-999, -999, -999]	-999	PAL1	1	R1185N
329.298	0.017	453836	MATH_START	n/a	-999	-999	n/a	n/a	n/a	n/a	1	[0, 0, 0]	-999	PAL1	1	R1185N
329.315	4.251	453853	PROB	4230	-999	-999	n/a	n/a	n/a	n/a	1	[4, 3, 1]	8	PAL1	1	R1185N
333.566	5.251	458104	PROB	5227	-999	-999	n/a	n/a	n/a	n/a	1	[7, 9, 3]	19	PAL1	1	R1185N
338.817	4.651	463355	PROB	4616	-999	-999	n/a	n/a	n/a	n/a	1	[3, 7, 4]	14	PAL1	1	R1185N
343.468	5.685	468006	PROB	5685	-999	-999	n/a	n/a	n/a	n/a	1	[4, 4, 7]	17	PAL1	1	R1185N
349.153	0.015	473690	STOP	n/a	-999	-999	n/a	n/a	n/a	n/a	1	[-999, -999, -999]	-999	PAL1	1	R1185N
349.168	0.0	473705	MATH_END	n/a	-999	-999	n/a	n/a	n/a	n/a	1	[0, 0, 0]	-999	PAL1	1	R1185N
349.168	0.017	473705	TEST_START	n/a	-999	-999	n/a	n/a	n/a	n/a	1	[0, 0, 0]	-999	PAL1	1	R1185N
349.185	1.034	473722	TEST_ORIENT	n/a	3	1	SPONGE	BLUSH	SPONGE	BLUSH	1	[0, 0, 0]	-999	PAL1	1	R1185N
350.219	0.0	474756	TEST_PROBE	n/a	3	1	SPONGE	BLUSH	SPONGE	BLUSH	1	[0, 0, 0]	-999	PAL1	1	R1185N
350.219	2.182	474756	REC_START	n/a	3	-999	n/a	BLUSH	n/a	n/a	1	[0, 0, 0]	-999	PAL1	1	R1185N
352.401	2.835	476938	REC_EVENT	2182	3	1	SPONGE	BLUSH	SPONGE	BLUSH	1	[0, 0, 0]	-999	PAL1	1	R1185N
355.236	0.017	479773	REC_END	n/a	3	-999	n/a	n/a	n/a	n/a	1	[0, 0, 0]	-999	PAL1	1	R1185N
355.253	0.817	479790	TEST_ORIENT	n/a	2	2	FORT	ROSE	FORT	ROSE	1	[0, 0, 0]	-999	PAL1	1	R1185N
356.07	0.0	480607	TEST_PROBE	n/a	2	2	FORT	ROSE	FORT	ROSE	1	[0, 0, 0]	-999	PAL1	1	R1185N
356.07	1.303	480607	REC_START	n/a	2	-999	n/a	ROSE	n/a	n/a	1	[0, 0, 0]	-999	PAL1	1	R1185N
357.373	3.72	481910	REC_EVENT	1303	2	2	FORT	ROSE	FORT	ROSE	1	[0, 0, 0]	-999	PAL1	1	R1185N
361.093	0.011	485630	REC_END	n/a	2	-999	n/a	n/a	n/a	n/a	1	[0, 0, 0]	-999	PAL1	1	R1185N
361.104	0.818	485641	TEST_ORIENT	n/a	1	3	CAKE	STAIR	CAKE	STAIR	1	[0, 0, 0]	-999	PAL1	1	R1185N
361.922	0.0	486459	TEST_PROBE	n/a	1	3	CAKE	STAIR	CAKE	STAIR	1	[0, 0, 0]	-999	PAL1	1	R1185N
361.922	1.973	486459	REC_START	n/a	1	-999	n/a	STAIR	n/a	n/a	1	[0, 0, 0]	-999	PAL1	1	R1185N
363.895	3.051	488432	REC_EVENT	1973	1	3	CAKE	STAIR	CAKE	STAIR	1	[0, 0, 0]	-999	PAL1	1	R1185N
366.946	0.009	491483	REC_END	n/a	1	-999	n/a	n/a	n/a	n/a	1	[0, 0, 0]	-999	PAL1	1	R1185N
366.955	0.85	491492	TEST_ORIENT	n/a	6	4	SHOE	n/a	SHOE	WORM	1	[0, 0, 0]	-999	PAL1	1	R1185N
367.805	0.001	492342	TEST_PROBE	n/a	6	4	SHOE	n/a	SHOE	WORM	1	[0, 0, 0]	-999	PAL1	1	R1185N
367.806	5.024	492343	REC_START	n/a	6	-999	n/a	n/a	n/a	n/a	1	[0, 0, 0]	-999	PAL1	1	R1185N
372.83	0.003	497367	REC_END	n/a	6	-999	n/a	n/a	n/a	n/a	1	[0, 0, 0]	-999	PAL1	1	R1185N
372.833	0.006	497370	REC_EVENT	5027	6	4	SHOE	<>	SHOE	WORM	1	[0, 0, 0]	-999	PAL1	1	R1185N
372.839	0.984	497376	TEST_ORIENT	n/a	5	5	ROPE	PLATE	ROPE	PLATE	1	[0, 0, 0]	-999	PAL1	1	R1185N
373.823	0.0	498359	TEST_PROBE	n/a	5	5	ROPE	PLATE	ROPE	PLATE	1	[0, 0, 0]	-999	PAL1	1	R1185N
373.823	1.691	498359	REC_START	n/a	5	-999	n/a	PLATE	n/a	n/a	1	[0, 0, 0]	-999	PAL1	1	R1185N
375.514	3.328	500050	REC_EVENT	1691	5	5	ROPE	PLATE	ROPE	PLATE	1	[0, 0, 0]	-999	PAL1	1	R1185N
378.842	0.015	503378	REC_END	n/a	5	-999	n/a	n/a	n/a	n/a	1	[0, 0, 0]	-999	PAL1	1	R1185N
378.857	0.833	503393	TEST_ORIENT	n/a	4	6	BARN	STAR	BARN	STAR	1	[0, 0, 0]	-999	PAL1	1	R1185N
379.69	0.001	504226	TEST_PROBE	n/a	4	6	BARN	STAR	BARN	STAR	1	[0, 0, 0]	-999	PAL1	1	R1185N
379.691	1.571	504227	REC_START	n/a	4	-999	n/a	STAR	n/a	n/a	1	[0, 0, 0]	-999	PAL1	1	R1185N
381.262	3.437	505798	REC_EVENT	1571	4	6	BARN	STAR	BARN	STAR	1	[0, 0, 0]	-999	PAL1	1	R1185N
384.699	2.334	509235	REC_END	n/a	4	-999	n/a	n/a	n/a	n/a	1	[0, 0, 0]	-999	PAL1	1	R1185N
387.033	10.444	511569	ENCODING_START	n/a	0	-999	n/a	n/a	n/a	n/a	2	[0, 0, 0]	-999	PAL1	1	R1185N
397.477	0.933	522013	STUDY_ORIENT	n/a	1	1	COW	n/a	COW	TOOL	2	[0, 0, 0]	-999	PAL1	1	R1185N
398.41	5.034	522946	STUDY_PAIR	n/a	1	1	COW	n/a	COW	TOOL	2	[0, 0, 0]	-999	PAL1	1	R1185N
403.444	0.834	527979	STUDY_ORIENT	n/a	2	4	VASE	VEIN	VASE	RAIN	2	[0, 0, 0]	-999	PAL1	1	R1185N
404.278	5.034	528813	STUDY_PAIR	n/a	2	4	VASE	VEIN	VASE	RAIN	2	[0, 0, 0]	-999	PAL1	1	R1185N
409.312	0.95	533847	STUDY_ORIENT	n/a	3	5	MOTH	n/a	MOTH	VINE	2	[0, 0, 0]	-999	PAL1	1	R1185N
410.262	5.034	534797	STUDY_PAIR	n/a	3	5	MOTH	n/a	MOTH	VINE	2	[0, 0, 0]	-999	PAL1	1	R1185N
415.296	0.934	539831	STUDY_ORIENT	n/a	4	6	BOY	TENT	BOY	TENT	2	[0, 0, 0]	-999	PAL1	1	R1185N
416.23	5.034	540765	STUDY_PAIR	n/a	4	6	BOY	TENT	BOY	TENT	2	[0, 0, 0]	-999	PAL1	1	R1185N
421.264	0.933	545799	STUDY_ORIENT	n/a	5	3	APE	SPOON	APE	SPOON	2	[0, 0, 0]	-999	PAL1	1	R1185N
422.197	5.018	546732	STUDY_PAIR	n/a	5	3	APE	SPOON	APE	SPOON	2	[0, 0, 0]	-999	PAL1	1	R1185N
427.215	0.8	551750	STUDY_ORIENT	n/a	6	2	LEAF	PALM	PALM	LEAF	2	[0, 0, 0]	-999	PAL1	1	R1185N
428.015	4.018	552549	STUDY_PAIR	n/a	6	2	LEAF	PALM	PALM	LEAF	2	[0, 0, 0]	-999	PAL1	1	R1185N
432.033	0.999	556567	START	n/a	-999	-999	n/a	n/a	n/a	n/a	2	[-999, -999, -999]	-999	PAL1	1	R1185N
433.032	0.017	557566	MATH_START	n/a	-999	-999	n/a	n/a	n/a	n/a	2	[0, 0, 0]	-999	PAL1	1	R1185N
433.049	4.401	557583	PROB	4368	-999	-999	n/a	n/a	n/a	n/a	2	[8, 2, 4]	14	PAL1	1	R1185N
437.45	4.601	561984	PROB	4567	-999	-999	n/a	n/a	n/a	n/a	2	[7, 9, 3]	19	PAL1	1	R1185N
442.051	2.9	566585	PROB	2871	-999	-999	n/a	n/a	n/a	n/a	2	[1, 9, 7]	17	PAL1	1	R1185N
444.951	31.018	569485	PROB	31018	-999	-999	n/a	n/a	n/a	n/a	2	[9, 8, 8]	25	PAL1	1	R1185N
475.969	0.004	600502	STOP	n/a	-999	-999	n/a	n/a	n/a	n/a	2	[-999, -999, -999]	-999	PAL1	1	R1185N
475.973	0.0	600506	TEST_START	n/a	-999	-999	n/a	n/a	n/a	n/a	2	[0, 0, 0]	-999	PAL1	1	R1185N
475.973	0.017	600506	MATH_END	n/a	-999	-999	n/a	n/a	n/a	n/a	2	[0, 0, 0]	-999	PAL1	1	R1185N
475.99	1.0	600523	TEST_ORIENT	n/a	1	1	COW	n/a	COW	TOOL	2	[0, 0, 0]	-999	PAL1	1	R1185N
476.99	0.0	601523	TEST_PROBE	n/a	1	1	COW	n/a	COW	TOOL	2	[0, 0, 0]	-999	PAL1	1	R1185N
476.99	5.015	601523	REC_START	n/a	1	-999	n/a	n/a	n/a	n/a	2	[0, 0, 0]	-999	PAL1	1	R1185N
482.005	0.002	606538	REC_EVENT	5015	1	1	COW	<>	COW	TOOL	2	[0, 0, 0]	-999	PAL1	1	R1185N
482.007	0.017	606540	REC_END	n/a	1	-999	n/a	n/a	n/a	n/a	2	[0, 0, 0]	-999	PAL1	1	R1185N
482.024	0.984	606557	TEST_ORIENT	n/a	6	2	LEAF	PALM	PALM	LEAF	2	[0, 0, 0]	-999	PAL1	1	R1185N
483.008	0.0	607540	TEST_PROBE	n/a	6	2	LEAF	PALM	PALM	LEAF	2	[0, 0, 0]	-999	PAL1	1	R1185N
483.008	1.372	607540	REC_START	n/a	6	-999	n/a	PALM	n/a	n/a	2	[0, 0, 0]	-999	PAL1	1	R1185N
484.38	3.645	608912	REC_EVENT	1372	6	2	LEAF	PALM	PALM	LEAF	2	[0, 0, 0]	-999	PAL1	1	R1185N
488.025	0.017	612557	REC_END	n/a	6	-999	n/a	n/a	n/a	n/a	2	[0, 0, 0]	-999	PAL1	1	R1185N
488.042	0.817	612574	TEST_ORIENT	n/a	5	3	APE	SPOON	APE	SPOON	2	[0, 0, 0]	-999	PAL1	1	R1185N
488.859	0.0	613391	TEST_PROBE	n/a	5	3	APE	SPOON	APE	SPOON	2	[0, 0, 0]	-999	PAL1	1	R1185N
488.859	0.922	613391	REC_START	n/a	5	-999	n/a	SPOON	n/a	n/a	2	[0, 0, 0]	-999	PAL1	1	R1185N
489.781	4.096	614313	REC_EVENT	922	5	3	APE	SPOON	APE	SPOON	2	[0, 0, 0]	-999	PAL1	1	R1185N
493.877	0.017	618409	REC_END	n/a	5	-999	n/a	n/a	n/a	n/a	2	[0, 0, 0]	-999	PAL1	1	R1185N
493.894	0.949	618426	TEST_ORIENT	n/a	2	4	VASE	VEIN	VASE	RAIN	2	[0, 0, 0]	-999	PAL1	1	R1185N
494.843	0.0	619375	REC_START	n/a	2	-999	n/a	VEIN	n/a	n/a	2	[0, 0, 0]	-999	PAL1	1	R1185N
494.843	2.617	619375	TEST_PROBE	n/a	2	4	VASE	VEIN	VASE	RAIN	2	[0, 0, 0]	-999	PAL1	1	R1185N
497.46	2.4	621992	REC_EVENT	2617	2	4	VASE	VEIN	VASE	RAIN	2	[0, 0, 0]	-999	PAL1	1	R1185N
499.86	0.018	624392	REC_END	n/a	2	-999	n/a	n/a	n/a	n/a	2	[0, 0, 0]	-999	PAL1	1	R1185N
499.878	0.816	624410	TEST_ORIENT	n/a	3	5	MOTH	n/a	MOTH	VINE	2	[0, 0, 0]	-999	PAL1	1	R1185N
500.694	0.001	625226	TEST_PROBE	n/a	3	5	MOTH	n/a	MOTH	VINE	2	[0, 0, 0]	-999	PAL1	1	R1185N
500.695	3.745	625227	REC_START	n/a	3	-999	n/a	n/a	n/a	n/a	2	[0, 0, 0]	-999	PAL1	1	R1185N
504.44	1.271	628972	REC_EVENT	3745	3	5	MOTH	<>	MOTH	VINE	2	[0, 0, 0]	-999	PAL1	1	R1185N
505.711	0.017	630243	REC_END	n/a	3	-999	n/a	n/a	n/a	n/a	2	[0, 0, 0]	-999	PAL1	1	R1185N
505.728	0.85	630260	TEST_ORIENT	n/a	4	6	BOY	TENT	BOY	TENT	2	[0, 0, 0]	-999	PAL1	1	R1185N
506.578	0.001	631110	TEST_PROBE	n/a	4	6	BOY	TENT	BOY	TENT	2	[0, 0, 0]	-999	PAL1	1	R1185N
506.579	1.051	631111	REC_START	n/a	4	-999	n/a	TENT	n/a	n/a	2	[0, 0, 0]	-999	PAL1	1	R1185N
507.63	3.957	632162	REC_EVENT	1051	4	6	BOY	TENT	BOY	TENT	2	[0, 0, 0]	-999	PAL1	1	R1185N
511.587	1.926	636118	REC_END	n/a	4	-999	n/a	n/a	n/a	n/a	2	[0, 0, 0]	-999	PAL1	1	R1185N
513.513	10.452	638044	ENCODING_START	n/a	0	-999	n/a	n/a	n/a	n/a	3	[0, 0, 0]	-999	PAL1	1	R1185N
523.965	0.967	648496	STUDY_ORIENT	n/a	1	1	TEA	BOOT	BOOT	TEA	3	[0, 0, 0]	-999	PAL1	1	R1185N
524.932	5.017	649463	STUDY_PAIR	n/a	1	1	TEA	BOOT	BOOT	TEA	3	[0, 0, 0]	-999	PAL1	1	R1185N
529.949	0.817	654480	STUDY_ORIENT	n/a	2	2	CLAY	WAND	CLAY	WAND	3	[0, 0, 0]	-999	PAL1	1	R1185N
530.766	5.034	655297	STUDY_PAIR	n/a	2	2	CLAY	WAND	CLAY	WAND	3	[0, 0, 0]	-999	PAL1	1	R1185N
535.8	0.834	660331	STUDY_ORIENT	n/a	3	3	SNAIL	GUARD	GUARD	SNAIL	3	[0, 0, 0]	-999	PAL1	1	R1185N
536.634	5.034	661165	STUDY_PAIR	n/a	3	3	SNAIL	GUARD	GUARD	SNAIL	3	[0, 0, 0]	-999	PAL1	1	R1185N
541.668	0.8	666198	STUDY_ORIENT	n/a	4	6	SOCK	n/a	SEAL	SOCK	3	[0, 0, 0]	-999	PAL1	1	R1185N
542.468	5.034	666998	STUDY_PAIR	n/a	4	6	SOCK	n/a	SEAL	SOCK	3	[0, 0, 0]	-999	PAL1	1	R1185N
547.502	0.884	672032	STUDY_ORIENT	n/a	5	5	STORM	THUMB	THUMB	STORM	3	[0, 0, 0]	-999	PAL1	1	R1185N
548.386	5.034	672916	STUDY_PAIR	n/a	5	5	STORM	THUMB	THUMB	STORM	3	[0, 0, 0]	-999	PAL1	1	R1185N
553.42	0.967	677950	STUDY_ORIENT	n/a	6	4	CHALK	FLAME	CHALK	FLAME	3	[0, 0, 0]	-999	PAL1	1	R1185N
554.387	4.017	678917	STUDY_PAIR	n/a	6	4	CHALK	FLAME	CHALK	FLAME	3	[0, 0, 0]	-999	PAL1	1	R1185N
558.404	1.0	682934	START	n/a	-999	-999	n/a	n/a	n/a	n/a	3	[-999, -999, -999]	-999	PAL1	1	R1185N
559.404	0.017	683934	MATH_START	n/a	-999	-999	n/a	n/a	n/a	n/a	3	[0, 0, 0]	-999	PAL1	1	R1185N
559.421	8.151	683951	PROB	8132	-999	-999	n/a	n/a	n/a	n/a	3	[9, 9, 6]	24	PAL1	1	R1185N
567.572	4.601	692101	PROB	4581	-999	-999	n/a	n/a	n/a	n/a	3	[9, 3, 4]	16	PAL1	1	R1185N
572.173	4.367	696702	PROB	4348	-999	-999	n/a	n/a	n/a	n/a	3	[4, 6, 7]	17	PAL1	1	R1185N
576.54	2.805	701069	PROB	2805	-999	-999	n/a	n/a	n/a	n/a	3	[1, 3, 3]	7	PAL1	1	R1185N
579.345	0.012	703874	STOP	n/a	-999	-999	n/a	n/a	n/a	n/a	3	[-999, -999, -999]	-999	PAL1	1	R1185N
579.357	0.0	703886	TEST_START	n/a	-999	-999	n/a	n/a	n/a	n/a	3	[0, 0, 0]	-999	PAL1	1	R1185N
579.357	0.017	703886	MATH_END	n/a	-999	-999	n/a	n/a	n/a	n/a	3	[0, 0, 0]	-999	PAL1	1	R1185N
579.374	0.95	703903	TEST_ORIENT	n/a	1	1	TEA	BOOT	BOOT	TEA	3	[0, 0, 0]	-999	PAL1	1	R1185N
580.324	0.001	704853	TEST_PROBE	n/a	1	1	TEA	BOOT	BOOT	TEA	3	[0, 0, 0]	-999	PAL1	1	R1185N
580.325	1.275	704854	REC_START	n/a	1	-999	n/a	BOOT	n/a	n/a	3	[0, 0, 0]	-999	PAL1	1	R1185N
581.6	3.725	706129	REC_EVENT	1275	1	1	TEA	BOOT	BOOT	TEA	3	[0, 0, 0]	-999	PAL1	1	R1185N
585.325	0.017	709854	REC_END	n/a	1	-999	n/a	n/a	n/a	n/a	3	[0, 0, 0]	-999	PAL1	1	R1185N
585.342	1.017	709871	TEST_ORIENT	n/a	2	2	CLAY	WAND	CLAY	WAND	3	[0, 0, 0]	-999	PAL1	1	R1185N
586.359	0.001	710888	TEST_PROBE	n/a	2	2	CLAY	WAND	CLAY	WAND	3	[0, 0, 0]	-999	PAL1	1	R1185N
586.36	1.337	710889	REC_START	n/a	2	-999	n/a	WAND	n/a	n/a	3	[0, 0, 0]	-999	PAL1	1	R1185N
587.697	3.688	712226	REC_EVENT	1337	2	2	CLAY	WAND	CLAY	WAND	3	[0, 0, 0]	-999	PAL1	1	R1185N
591.385	0.008	715914	REC_END	n/a	2	-999	n/a	n/a	n/a	n/a	3	[0, 0, 0]	-999	PAL1	1	R1185N
591.393	0.817	715922	TEST_ORIENT	n/a	3	3	SNAIL	GUARD	GUARD	SNAIL	3	[0, 0, 0]	-999	PAL1	1	R1185N
592.21	0.0	716738	TEST_PROBE	n/a	3	3	SNAIL	GUARD	GUARD	SNAIL	3	[0, 0, 0]	-999	PAL1	1	R1185N
592.21	1.137	716738	REC_START	n/a	3	-999	n/a	GUARD	n/a	n/a	3	[0, 0, 0]	-999	PAL1	1	R1185N
593.347	3.88	717875	REC_EVENT	1137	3	3	SNAIL	GUARD	GUARD	SNAIL	3	[0, 0, 0]	-999	PAL1	1	R1185N
597.227	0.017	721755	REC_END	n/a	3	-999	n/a	n/a	n/a	n/a	3	[0, 0, 0]	-999	PAL1	1	R1185N
597.244	0.867	721772	TEST_ORIENT	n/a	6	4	CHALK	FLAME	CHALK	FLAME	3	[0, 0, 0]	-999	PAL1	1	R1185N
598.111	0.0	722639	REC_START	n/a	6	-999	n/a	FLAME	n/a	n/a	3	[0, 0, 0]	-999	PAL1	1	R1185N
598.111	0.982	722639	TEST_PROBE	n/a	6	4	CHALK	FLAME	CHALK	FLAME	3	[0, 0, 0]	-999	PAL1	1	R1185N
599.093	4.035	723621	REC_EVENT	982	6	4	CHALK	FLAME	CHALK	FLAME	3	[0, 0, 0]	-999	PAL1	1	R1185N
603.128	0.017	727656	REC_END	n/a	6	-999	n/a	n/a	n/a	n/a	3	[0, 0, 0]	-999	PAL1	1	R1185N
603.145	1.017	727673	TEST_ORIENT	n/a	5	5	STORM	THUMB	THUMB	STORM	3	[0, 0, 0]	-999	PAL1	1	R1185N
604.162	0.0	728690	TEST_PROBE	n/a	5	5	STORM	THUMB	THUMB	STORM	3	[0, 0, 0]	-999	PAL1	1	R1185N
604.162	1.215	728690	REC_START	n/a	5	-999	n/a	THUMB	n/a	n/a	3	[0, 0, 0]	-999	PAL1	1	R1185N
605.377	3.802	729905	REC_EVENT	1215	5	5	STORM	THUMB	THUMB	STORM	3	[0, 0, 0]	-999	PAL1	1	R1185N
609.179	0.017	733707	REC_END	n/a	5	-999	n/a	n/a	n/a	n/a	3	[0, 0, 0]	-999	PAL1	1	R1185N
609.196	0.867	733724	TEST_ORIENT	n/a	4	6	SOCK	n/a	SEAL	SOCK	3	[0, 0, 0]	-999	PAL1	1	R1185N
610.063	0.0	734591	TEST_PROBE	n/a	4	6	SOCK	n/a	SEAL	SOCK	3	[0, 0, 0]	-999	PAL1	1	R1185N
610.063	5.015	734591	REC_START	n/a	4	-999	n/a	n/a	n/a	n/a	3	[0, 0, 0]	-999	PAL1	1	R1185N
615.078	0.002	739606	REC_EVENT	5015	4	6	SOCK	<>	SEAL	SOCK	3	[0, 0, 0]	-999	PAL1	1	R1185N
615.08	4.897	739608	REC_END	n/a	4	-999	n/a	n/a	n/a	n/a	3	[0, 0, 0]	-999	PAL1	1	R1185N
619.977	10.439	744504	ENCODING_START	n/a	0	-999	n/a	n/a	n/a	n/a	4	[0, 0, 0]	-999	PAL1	1	R1185N
630.416	0.8	754943	STUDY_ORIENT	n/a	1	3	KITE	BOW	KITE	DART	4	[0, 0, 0]	-999	PAL1	1	R1185N
631.216	5.018	755743	STUDY_PAIR	n/a	1	3	KITE	BOW	KITE	DART	4	[0, 0, 0]	-999	PAL1	1	R1185N
636.234	0.783	760761	STUDY_ORIENT	n/a	2	2	MILK	CONE	MILK	CONE	4	[0, 0, 0]	-999	PAL1	1	R1185N
637.017	5.034	761544	STUDY_PAIR	n/a	2	2	MILK	CONE	MILK	CONE	4	[0, 0, 0]	-999	PAL1	1	R1185N
642.051	0.8	766578	STUDY_ORIENT	n/a	3	1	JAR	STRING	STRING	JAR	4	[0, 0, 0]	-999	PAL1	1	R1185N
642.851	5.019	767378	STUDY_PAIR	n/a	3	1	JAR	STRING	STRING	JAR	4	[0, 0, 0]	-999	PAL1	1	R1185N
647.87	0.882	772396	STUDY_ORIENT	n/a	4	4	TOAD	n/a	MAP	TOAD	4	[0, 0, 0]	-999	PAL1	1	R1185N
648.752	5.018	773278	STUDY_PAIR	n/a	4	4	TOAD	n/a	MAP	TOAD	4	[0, 0, 0]	-999	PAL1	1	R1185N
653.77	0.85	778296	STUDY_ORIENT	n/a	5	5	NAIL	n/a	SKY	NAIL	4	[0, 0, 0]	-999	PAL1	1	R1185N
654.62	5.034	779146	STUDY_PAIR	n/a	5	5	NAIL	n/a	SKY	NAIL	4	[0, 0, 0]	-999	PAL1	1	R1185N
659.654	1.001	784180	STUDY_ORIENT	n/a	6	6	HEART	TIE	TIE	HEART	4	[0, 0, 0]	-999	PAL1	1	R1185N
660.655	4.017	785181	STUDY_PAIR	n/a	6	6	HEART	TIE	TIE	HEART	4	[0, 0, 0]	-999	PAL1	1	R1185N
664.672	1.0	789198	START	n/a	-999	-999	n/a	n/a	n/a	n/a	4	[-999, -999, -999]	-999	PAL1	1	R1185N
665.672	0.017	790198	MATH_START	n/a	-999	-999	n/a	n/a	n/a	n/a	4	[0, 0, 0]	-999	PAL1	1	R1185N
665.689	7.284	790215	PROB	7264	-999	-999	n/a	n/a	n/a	n/a	4	[3, 9, 6]	19	PAL1	1	R1185N
672.973	5.218	797499	PROB	5196	-999	-999	n/a	n/a	n/a	n/a	4	[4, 1, 9]	14	PAL1	1	R1185N
678.191	5.384	802716	PROB	5354	-999	-999	n/a	n/a	n/a	n/a	4	[1, 7, 2]	10	PAL1	1	R1185N
683.575	5.706	808100	PROB	5706	-999	-999	n/a	n/a	n/a	n/a	4	[5, 2, 3]	10	PAL1	1	R1185N
689.281	0.012	813806	STOP	n/a	-999	-999	n/a	n/a	n/a	n/a	4	[-999, -999, -999]	-999	PAL1	1	R1185N
689.293	0.0	813818	MATH_END	n/a	-999	-999	n/a	n/a	n/a	n/a	4	[0, 0, 0]	-999	PAL1	1	R1185N
689.293	0.016	813818	TEST_START	n/a	-999	-999	n/a	n/a	n/a	n/a	4	[0, 0, 0]	-999	PAL1	1	R1185N
689.309	0.867	813834	TEST_ORIENT	n/a	3	1	JAR	STRING	STRING	JAR	4	[0, 0, 0]	-999	PAL1	1	R1185N
690.176	0.001	814701	TEST_PROBE	n/a	3	1	JAR	STRING	STRING	JAR	4	[0, 0, 0]	-999	PAL1	1	R1185N
690.177	2.232	814702	REC_START	n/a	3	-999	n/a	STRING	n/a	n/a	4	[0, 0, 0]	-999	PAL1	1	R1185N
692.409	2.795	816934	REC_EVENT	2232	3	1	JAR	STRING	STRING	JAR	4	[0, 0, 0]	-999	PAL1	1	R1185N
695.204	0.006	819729	REC_END	n/a	3	-999	n/a	n/a	n/a	n/a	4	[0, 0, 0]	-999	PAL1	1	R1185N
695.21	0.834	819735	TEST_ORIENT	n/a	2	2	MILK	CONE	MILK	CONE	4	[0, 0, 0]	-999	PAL1	1	R1185N
696.044	0.0	820569	REC_START	n/a	2	-999	n/a	CONE	n/a	n/a	4	[0, 0, 0]	-999	PAL1	1	R1185N
696.044	1.089	820569	TEST_PROBE	n/a	2	2	MILK	CONE	MILK	CONE	4	[0, 0, 0]	-999	PAL1	1	R1185N
697.133	3.928	821658	REC_EVENT	1089	2	2	MILK	CONE	MILK	CONE	4	[0, 0, 0]	-999	PAL1	1	R1185N
701.061	0.017	825586	REC_END	n/a	2	-999	n/a	n/a	n/a	n/a	4	[0, 0, 0]	-999	PAL1	1	R1185N
701.078	0.818	825603	TEST_ORIENT	n/a	1	3	KITE	BOW	KITE	DART	4	[0, 0, 0]	-999	PAL1	1	R1185N
701.896	0.0	826420	TEST_PROBE	n/a	1	3	KITE	BOW	KITE	DART	4	[0, 0, 0]	-999	PAL1	1	R1185N
701.896	3.27	826420	REC_START	n/a	1	-999	n/a	BOW	n/a	n/a	4	[0, 0, 0]	-999	PAL1	1	R1185N
705.166	1.757	829690	REC_EVENT	3270	1	3	KITE	BOW	KITE	DART	4	[0, 0, 0]	-999	PAL1	1	R1185N
706.923	0.007	831447	REC_END	n/a	1	-999	n/a	n/a	n/a	n/a	4	[0, 0, 0]	-999	PAL1	1	R1185N
706.93	0.916	831454	TEST_ORIENT	n/a	4	4	TOAD	n/a	MAP	TOAD	4	[0, 0, 0]	-999	PAL1	1	R1185N
707.846	0.0	832370	TEST_PROBE	n/a	4	4	TOAD	n/a	MAP	TOAD	4	[0, 0, 0]	-999	PAL1	1	R1185N
707.846	5.027	832370	REC_START	n/a	4	-999	n/a	n/a	n/a	n/a	4	[0, 0, 0]	-999	PAL1	1	R1185N
712.873	0.0	837397	REC_EVENT	5027	4	4	TOAD	<>	MAP	TOAD	4	[0, 0, 0]	-999	PAL1	1	R1185N
712.873	0.008	837397	REC_END	n/a	4	-999	n/a	n/a	n/a	n/a	4	[0, 0, 0]	-999	PAL1	1	R1185N
712.881	0.882	837405	TEST_ORIENT	n/a	5	5	NAIL	n/a	SKY	NAIL	4	[0, 0, 0]	-999	PAL1	1	R1185N
713.763	0.001	838287	TEST_PROBE	n/a	5	5	NAIL	n/a	SKY	NAIL	4	[0, 0, 0]	-999	PAL1	1	R1185N
713.764	5.009	838288	REC_START	n/a	5	-999	n/a	n/a	n/a	n/a	4	[0, 0, 0]	-999	PAL1	1	R1185N
718.773	0.001	843297	REC_EVENT	5009	5	5	NAIL	<>	SKY	NAIL	4	[0, 0, 0]	-999	PAL1	1	R1185N
718.774	0.007	843298	REC_END	n/a	5	-999	n/a	n/a	n/a	n/a	4	[0, 0, 0]	-999	PAL1	1	R1185N
718.781	0.85	843305	TEST_ORIENT	n/a	6	6	HEART	TIE	TIE	HEART	4	[0, 0, 0]	-999	PAL1	1	R1185N
719.631	0.0	844155	TEST_PROBE	n/a	6	6	HEART	TIE	TIE	HEART	4	[0, 0, 0]	-999	PAL1	1	R1185N
719.631	1.458	844155	REC_START	n/a	6	-999	n/a	TIE	n/a	n/a	4	[0, 0, 0]	-999	PAL1	1	R1185N
721.089	3.559	845613	REC_EVENT	1458	6	6	HEART	TIE	TIE	HEART	4	[0, 0, 0]	-999	PAL1	1	R1185N
724.648	3.321	849172	REC_END	n/a	6	-999	n/a	n/a	n/a	n/a	4	[0, 0, 0]	-999	PAL1	1	R1185N
727.969	10.449	852493	ENCODING_START	n/a	0	-999	n/a	n/a	n/a	n/a	5	[0, 0, 0]	-999	PAL1	1	R1185N
738.418	0.95	862941	STUDY_ORIENT	n/a	1	1	BEE	BOX	BEE	BEACH	5	[0, 0, 0]	-999	PAL1	1	R1185N
739.368	5.034	863891	STUDY_PAIR	n/a	1	1	BEE	BOX	BEE	BEACH	5	[0, 0, 0]	-999	PAL1	1	R1185N
744.402	0.817	868925	STUDY_ORIENT	n/a	2	2	BOMB	n/a	BOMB	POND	5	[0, 0, 0]	-999	PAL1	1	R1185N
745.219	5.034	869742	STUDY_PAIR	n/a	2	2	BOMB	n/a	BOMB	POND	5	[0, 0, 0]	-999	PAL1	1	R1185N
750.253	0.884	874776	STUDY_ORIENT	n/a	3	5	SHRIMP	n/a	SHRIMP	SMILE	5	[0, 0, 0]	-999	PAL1	1	R1185N
751.137	5.034	875660	STUDY_PAIR	n/a	3	5	SHRIMP	n/a	SHRIMP	SMILE	5	[0, 0, 0]	-999	PAL1	1	R1185N
756.171	1.017	880693	STUDY_ORIENT	n/a	4	6	HEN	n/a	BOX	HEN	5	[0, 0, 0]	-999	PAL1	1	R1185N
757.188	5.034	881710	STUDY_PAIR	n/a	4	6	HEN	n/a	BOX	HEN	5	[0, 0, 0]	-999	PAL1	1	R1185N
762.222	0.966	886744	STUDY_ORIENT	n/a	5	3	SHELL	HEN	SHELL	BRIDGE	5	[0, 0, 0]	-999	PAL1	1	R1185N
763.188	5.018	887710	STUDY_PAIR	n/a	5	3	SHELL	HEN	SHELL	BRIDGE	5	[0, 0, 0]	-999	PAL1	1	R1185N
768.206	0.8	892728	STUDY_ORIENT	n/a	6	4	FOOD	FOX	FOX	FOOD	5	[0, 0, 0]	-999	PAL1	1	R1185N
769.006	4.018	893528	STUDY_PAIR	n/a	6	4	FOOD	FOX	FOX	FOOD	5	[0, 0, 0]	-999	PAL1	1	R1185N
773.024	0.999	897546	START	n/a	-999	-999	n/a	n/a	n/a	n/a	5	[-999, -999, -999]	-999	PAL1	1	R1185N
774.023	0.017	898545	MATH_START	n/a	-999	-999	n/a	n/a	n/a	n/a	5	[0, 0, 0]	-999	PAL1	1	R1185N
774.04	4.768	898562	PROB	4737	-999	-999	n/a	n/a	n/a	n/a	5	[6, 3, 7]	16	PAL1	1	R1185N
778.808	6.434	903330	PROB	6401	-999	-999	n/a	n/a	n/a	n/a	5	[9, 9, 6]	24	PAL1	1	R1185N
785.242	4.801	909763	PROB	4775	-999	-999	n/a	n/a	n/a	n/a	5	[3, 4, 6]	13	PAL1	1	R1185N
790.043	2.05	914564	PROB	2022	-999	-999	n/a	n/a	n/a	n/a	5	[3, 1, 9]	13	PAL1	1	R1185N
792.093	6.508	916614	PROB	6508	-999	-999	n/a	n/a	n/a	n/a	5	[2, 5, 9]	16	PAL1	1	R1185N
798.601	0.01	923122	STOP	n/a	-999	-999	n/a	n/a	n/a	n/a	5	[-999, -999, -999]	-999	PAL1	1	R1185N
798.611	0.0	923132	MATH_END	n/a	-999	-999	n/a	n/a	n/a	n/a	5	[0, 0, 0]	-999	PAL1	1	R1185N
798.611	0.017	923132	TEST_START	n/a	-999	-999	n/a	n/a	n/a	n/a	5	[0, 0, 0]	-999	PAL1	1	R1185N
798.628	0.9	923149	TEST_ORIENT	n/a	1	1	BEE	BOX	BEE	BEACH	5	[0, 0, 0]	-999	PAL1	1	R1185N
799.528	0.001	924049	TEST_PROBE	n/a	1	1	BEE	BOX	BEE	BEACH	5	[0, 0, 0]	-999	PAL1	1	R1185N
799.529	2.129	924050	REC_START	n/a	1	-999	n/a	BOX	n/a	n/a	5	[0, 0, 0]	-999	PAL1	1	R1185N
801.658	2.887	926179	REC_EVENT	2129	1	1	BEE	BOX	BEE	BEACH	5	[0, 0, 0]	-999	PAL1	1	R1185N
804.545	0.017	929066	REC_END	n/a	1	-999	n/a	n/a	n/a	n/a	5	[0, 0, 0]	-999	PAL1	1	R1185N
804.562	0.8	929083	TEST_ORIENT	n/a	2	2	BOMB	n/a	BOMB	POND	5	[0, 0, 0]	-999	PAL1	1	R1185N
805.362	0.001	929883	TEST_PROBE	n/a	2	2	BOMB	n/a	BOMB	POND	5	[0, 0, 0]	-999	PAL1	1	R1185N
805.363	5.009	929884	REC_START	n/a	2	-999	n/a	n/a	n/a	n/a	5	[0, 0, 0]	-999	PAL1	1	R1185N
810.372	0.001	934893	REC_EVENT	5009	2	2	BOMB	<>	BOMB	POND	5	[0, 0, 0]	-999	PAL1	1	R1185N
810.373	0.007	934894	REC_END	n/a	2	-999	n/a	n/a	n/a	n/a	5	[0, 0, 0]	-999	PAL1	1	R1185N
810.38	0.95	934901	TEST_ORIENT	n/a	5	3	SHELL	HEN	SHELL	BRIDGE	5	[0, 0, 0]	-999	PAL1	1	R1185N
811.33	0.0	935850	TEST_PROBE	n/a	5	3	SHELL	HEN	SHELL	BRIDGE	5	[0, 0, 0]	-999	PAL1	1	R1185N
811.33	3.082	935850	REC_START	n/a	5	-999	n/a	HEN	n/a	n/a	5	[0, 0, 0]	-999	PAL1	1	R1185N
814.412	1.935	938932	REC_EVENT	3082	5	3	SHELL	HEN	SHELL	BRIDGE	5	[0, 0, 0]	-999	PAL1	1	R1185N
816.347	0.017	940867	REC_END	n/a	5	-999	n/a	n/a	n/a	n/a	5	[0, 0, 0]	-999	PAL1	1	R1185N
816.364	0.884	940884	TEST_ORIENT	n/a	6	4	FOOD	FOX	FOX	FOOD	5	[0, 0, 0]	-999	PAL1	1	R1185N
817.248	0.0	941768	TEST_PROBE	n/a	6	4	FOOD	FOX	FOX	FOOD	5	[0, 0, 0]	-999	PAL1	1	R1185N
817.248	1.186	941768	REC_START	n/a	6	-999	n/a	FOX	n/a	n/a	5	[0, 0, 0]	-999	PAL1	1	R1185N
818.434	3.831	942954	REC_EVENT	1186	6	4	FOOD	FOX	FOX	FOOD	5	[0, 0, 0]	-999	PAL1	1	R1185N
822.265	0.017	946785	REC_END	n/a	6	-999	n/a	n/a	n/a	n/a	5	[0, 0, 0]	-999	PAL1	1	R1185N
822.282	1.033	946802	TEST_ORIENT	n/a	3	5	SHRIMP	n/a	SHRIMP	SMILE	5	[0, 0, 0]	-999	PAL1	1	R1185N
823.315	0.001	947835	TEST_PROBE	n/a	3	5	SHRIMP	n/a	SHRIMP	SMILE	5	[0, 0, 0]	-999	PAL1	1	R1185N
823.316	5.009	947836	REC_START	n/a	3	-999	n/a	n/a	n/a	n/a	5	[0, 0, 0]	-999	PAL1	1	R1185N
828.325	0.001	952845	REC_EVENT	5009	3	5	SHRIMP	<>	SHRIMP	SMILE	5	[0, 0, 0]	-999	PAL1	1	R1185N
828.326	0.007	952846	REC_END	n/a	3	-999	n/a	n/a	n/a	n/a	5	[0, 0, 0]	-999	PAL1	1	R1185N
828.333	1.016	952853	TEST_ORIENT	n/a	4	6	HEN	n/a	BOX	HEN	5	[0, 0, 0]	-999	PAL1	1	R1185N
829.349	0.001	953869	TEST_PROBE	n/a	4	6	HEN	n/a	BOX	HEN	5	[0, 0, 0]	-999	PAL1	1	R1185N
829.35	5.009	953870	REC_START	n/a	4	-999	n/a	n/a	n/a	n/a	5	[0, 0, 0]	-999	PAL1	1	R1185N
834.359	0.0	958879	REC_EVENT	5009	4	6	HEN	<>	BOX	HEN	5	[0, 0, 0]	-999	PAL1	1	R1185N
834.359	1.434	958879	REC_END	n/a	4	-999	n/a	n/a	n/a	n/a	5	[0, 0, 0]	-999	PAL1	1	R1185N
835.793	10.443	960313	ENCODING_START	n/a	0	-999	n/a	n/a	n/a	n/a	6	[0, 0, 0]	-999	PAL1	1	R1185N
846.236	0.917	970755	STUDY_ORIENT	n/a	1	5	FOAM	n/a	FOAM	SHEET	6	[0, 0, 0]	-999	PAL1	1	R1185N
847.153	5.034	971672	STUDY_PAIR	n/a	1	5	FOAM	n/a	FOAM	SHEET	6	[0, 0, 0]	-999	PAL1	1	R1185N
852.187	0.783	976706	STUDY_ORIENT	n/a	2	4	GLASS	n/a	PHONE	GLASS	6	[0, 0, 0]	-999	PAL1	1	R1185N
852.97	5.018	977489	STUDY_PAIR	n/a	2	4	GLASS	n/a	PHONE	GLASS	6	[0, 0, 0]	-999	PAL1	1	R1185N
857.988	0.783	982507	STUDY_ORIENT	n/a	3	3	MAIL	SHEET	MAIL	CLOTH	6	[0, 0, 0]	-999	PAL1	1	R1185N
858.771	5.018	983290	STUDY_PAIR	n/a	3	3	MAIL	SHEET	MAIL	CLOTH	6	[0, 0, 0]	-999	PAL1	1	R1185N
863.789	0.833	988308	STUDY_ORIENT	n/a	4	6	FLEA	n/a	DIME	FLEA	6	[0, 0, 0]	-999	PAL1	1	R1185N
864.622	5.018	989141	STUDY_PAIR	n/a	4	6	FLEA	n/a	DIME	FLEA	6	[0, 0, 0]	-999	PAL1	1	R1185N
869.64	0.9	994158	STUDY_ORIENT	n/a	5	1	ELF	n/a	ELF	HAT	6	[0, 0, 0]	-999	PAL1	1	R1185N
870.54	5.034	995058	STUDY_PAIR	n/a	5	1	ELF	n/a	ELF	HAT	6	[0, 0, 0]	-999	PAL1	1	R1185N
875.574	0.784	1000092	STUDY_ORIENT	n/a	6	2	BED	n/a	PURSE	BED	6	[0, 0, 0]	-999	PAL1	1	R1185N
876.358	4.017	1000876	STUDY_PAIR	n/a	6	2	BED	n/a	PURSE	BED	6	[0, 0, 0]	-999	PAL1	1	R1185N
880.375	1.0	1004893	START	n/a	-999	-999	n/a	n/a	n/a	n/a	6	[-999, -999, -999]	-999	PAL1	1	R1185N
881.375	0.017	1005893	MATH_START	n/a	-999	-999	n/a	n/a	n/a	n/a	6	[0, 0, 0]	-999	PAL1	1	R1185N
881.392	4.485	1005910	PROB	4457	-999	-999	n/a	n/a	n/a	n/a	6	[8, 5, 3]	16	PAL1	1	R1185N
885.877	8.617	1010395	PROB	8596	-999	-999	n/a	n/a	n/a	n/a	6	[2, 6, 5]	13	PAL1	1	R1185N
894.494	5.801	1019011	PROB	5771	-999	-999	n/a	n/a	n/a	n/a	6	[1, 6, 4]	11	PAL1	1	R1185N
900.295	10.874	1024812	PROB	10874	-999	-999	n/a	n/a	n/a	n/a	6	[6, 7, 2]	15	PAL1	1	R1185N
911.169	0.011	1035686	STOP	n/a	-999	-999	n/a	n/a	n/a	n/a	6	[-999, -999, -999]	-999	PAL1	1	R1185N
911.18	0.0	1035697	MATH_END	n/a	-999	-999	n/a	n/a	n/a	n/a	6	[0, 0, 0]	-999	PAL1	1	R1185N
911.18	0.017	1035697	TEST_START	n/a	-999	-999	n/a	n/a	n/a	n/a	6	[0, 0, 0]	-999	PAL1	1	R1185N
911.197	0.933	1035714	TEST_ORIENT	n/a	5	1	ELF	n/a	ELF	HAT	6	[0, 0, 0]	-999	PAL1	1	R1185N
912.13	0.001	1036647	TEST_PROBE	n/a	5	1	ELF	n/a	ELF	HAT	6	[0, 0, 0]	-999	PAL1	1	R1185N
912.131	4.998	1036648	REC_START	n/a	5	-999	n/a	n/a	n/a	n/a	6	[0, 0, 0]	-999	PAL1	1	R1185N
917.129	0.002	1041646	REC_EVENT	4998	5	1	ELF	<>	ELF	HAT	6	[0, 0, 0]	-999	PAL1	1	R1185N
917.131	0.017	1041648	REC_END	n/a	5	-999	n/a	n/a	n/a	n/a	6	[0, 0, 0]	-999	PAL1	1	R1185N
917.148	0.817	1041665	TEST_ORIENT	n/a	6	2	BED	n/a	PURSE	BED	6	[0, 0, 0]	-999	PAL1	1	R1185N
917.965	0.0	1042482	TEST_PROBE	n/a	6	2	BED	n/a	PURSE	BED	6	[0, 0, 0]	-999	PAL1	1	R1185N
917.965	5.015	1042482	REC_START	n/a	6	-999	n/a	n/a	n/a	n/a	6	[0, 0, 0]	-999	PAL1	1	R1185N
922.98	0.002	1047496	REC_EVENT	5015	6	2	BED	<>	PURSE	BED	6	[0, 0, 0]	-999	PAL1	1	R1185N
922.982	0.017	1047498	REC_END	n/a	6	-999	n/a	n/a	n/a	n/a	6	[0, 0, 0]	-999	PAL1	1	R1185N
922.999	1.033	1047515	TEST_ORIENT	n/a	3	3	MAIL	SHEET	MAIL	CLOTH	6	[0, 0, 0]	-999	PAL1	1	R1185N
924.032	0.001	1048548	TEST_PROBE	n/a	3	3	MAIL	SHEET	MAIL	CLOTH	6	[0, 0, 0]	-999	PAL1	1	R1185N
924.033	2.712	1048549	REC_START	n/a	3	-999	n/a	SHEET	n/a	n/a	6	[0, 0, 0]	-999	PAL1	1	R1185N
926.745	2.297	1051261	REC_EVENT	2712	3	3	MAIL	SHEET	MAIL	CLOTH	6	[0, 0, 0]	-999	PAL1	1	R1185N
929.042	0.008	1053558	REC_END	n/a	3	-999	n/a	n/a	n/a	n/a	6	[0, 0, 0]	-999	PAL1	1	R1185N
929.05	0.817	1053566	TEST_ORIENT	n/a	2	4	GLASS	n/a	PHONE	GLASS	6	[0, 0, 0]	-999	PAL1	1	R1185N
929.867	0.0	1054383	TEST_PROBE	n/a	2	4	GLASS	n/a	PHONE	GLASS	6	[0, 0, 0]	-999	PAL1	1	R1185N
929.867	5.015	1054383	REC_START	n/a	2	-999	n/a	n/a	n/a	n/a	6	[0, 0, 0]	-999	PAL1	1	R1185N
934.882	0.003	1059398	REC_EVENT	5015	2	4	GLASS	<>	PHONE	GLASS	6	[0, 0, 0]	-999	PAL1	1	R1185N
934.885	0.017	1059401	REC_END	n/a	2	-999	n/a	n/a	n/a	n/a	6	[0, 0, 0]	-999	PAL1	1	R1185N
934.902	0.816	1059418	TEST_ORIENT	n/a	1	5	FOAM	n/a	FOAM	SHEET	6	[0, 0, 0]	-999	PAL1	1	R1185N
935.718	0.0	1060234	REC_START	n/a	1	-999	n/a	n/a	n/a	n/a	6	[0, 0, 0]	-999	PAL1	1	R1185N
935.718	5.015	1060234	TEST_PROBE	n/a	1	5	FOAM	n/a	FOAM	SHEET	6	[0, 0, 0]	-999	PAL1	1	R1185N
940.733	0.002	1065249	REC_EVENT	5015	1	5	FOAM	<>	FOAM	SHEET	6	[0, 0, 0]	-999	PAL1	1	R1185N
940.735	0.017	1065251	REC_END	n/a	1	-999	n/a	n/a	n/a	n/a	6	[0, 0, 0]	-999	PAL1	1	R1185N
940.752	1.033	1065268	TEST_ORIENT	n/a	4	6	FLEA	n/a	DIME	FLEA	6	[0, 0, 0]	-999	PAL1	1	R1185N
941.785	0.001	1066301	TEST_PROBE	n/a	4	6	FLEA	n/a	DIME	FLEA	6	[0, 0, 0]	-999	PAL1	1	R1185N
941.786	5.0	1066302	REC_START	n/a	4	-999	n/a	n/a	n/a	n/a	6	[0, 0, 0]	-999	PAL1	1	R1185N
946.786	0.003	1071302	REC_END	n/a	4	-999	n/a	n/a	n/a	n/a	6	[0, 0, 0]	-999	PAL1	1	R1185N
946.789	31.5	1071305	REC_EVENT	5003	4	6	FLEA	<>	DIME	FLEA	6	[0, 0, 0]	-999	PAL1	1	R1185N
978.289	10.438	1102803	ENCODING_START	n/a	0	-999	n/a	n/a	n/a	n/a	7	[0, 0, 0]	-999	PAL1	1	R1185N
988.727	0.883	1113241	STUDY_ORIENT	n/a	1	3	PEACH	DEER	DEER	PEACH	7	[0, 0, 0]	-999	PAL1	1	R1185N
989.61	5.034	1114124	STUDY_PAIR	n/a	1	3	PEACH	DEER	DEER	PEACH	7	[0, 0, 0]	-999	PAL1	1	R1185N
994.644	0.817	1119158	STUDY_ORIENT	n/a	2	2	BANK	JAIL	BANK	JAIL	7	[0, 0, 0]	-999	PAL1	1	R1185N
995.461	5.034	1119975	STUDY_PAIR	n/a	2	2	BANK	JAIL	BANK	JAIL	7	[0, 0, 0]	-999	PAL1	1	R1185N
1000.495	0.867	1125009	STUDY_ORIENT	n/a	3	5	TREE	FRUIT	FRUIT	TREE	7	[0, 0, 0]	-999	PAL1	1	R1185N
1001.362	5.034	1125876	STUDY_PAIR	n/a	3	5	TREE	FRUIT	FRUIT	TREE	7	[0, 0, 0]	-999	PAL1	1	R1185N
1006.396	0.8	1130909	STUDY_ORIENT	n/a	4	6	BRUSH	GRASS	BRUSH	GRASS	7	[0, 0, 0]	-999	PAL1	1	R1185N
1007.196	5.018	1131709	STUDY_PAIR	n/a	4	6	BRUSH	GRASS	BRUSH	GRASS	7	[0, 0, 0]	-999	PAL1	1	R1185N
1012.214	0.95	1136727	STUDY_ORIENT	n/a	5	1	CAVE	CHEEK	CHEEK	CAVE	7	[0, 0, 0]	-999	PAL1	1	R1185N
1013.164	5.034	1137677	STUDY_PAIR	n/a	5	1	CAVE	CHEEK	CHEEK	CAVE	7	[0, 0, 0]	-999	PAL1	1	R1185N
1018.198	0.884	1142711	STUDY_ORIENT	n/a	6	4	CAGE	GOLD	CAGE	GOLD	7	[0, 0, 0]	-999	PAL1	1	R1185N
1019.082	4.018	1143595	STUDY_PAIR	n/a	6	4	CAGE	GOLD	CAGE	GOLD	7	[0, 0, 0]	-999	PAL1	1	R1185N
1023.1	0.999	1147613	START	n/a	-999	-999	n/a	n/a	n/a	n/a	7	[-999, -999, -999]	-999	PAL1	1	R1185N
1024.099	0.017	1148612	MATH_START	n/a	-999	-999	n/a	n/a	n/a	n/a	7	[0, 0, 0]	-999	PAL1	1	R1185N
1024.116	9.235	1148629	PROB	9205	-999	-999	n/a	n/a	n/a	n/a	7	[2, 9, 6]	19	PAL1	1	R1185N
1033.351	9.81	1157863	PROB	9810	-999	-999	n/a	n/a	n/a	n/a	7	[5, 7, 6]	18	PAL1	1	R1185N
1043.161	0.008	1167673	STOP	n/a	-999	-999	n/a	n/a	n/a	n/a	7	[-999, -999, -999]	-999	PAL1	1	R1185N
1043.169	0.0	1167681	MATH_END	n/a	-999	-999	n/a	n/a	n/a	n/a	7	[0, 0, 0]	-999	PAL1	1	R1185N
1043.169	0.017	1167681	TEST_START	n/a	-999	-999	n/a	n/a	n/a	n/a	7	[0, 0, 0]	-999	PAL1	1	R1185N
1043.186	0.933	1167698	TEST_ORIENT	n/a	5	1	CAVE	CHEEK	CHEEK	CAVE	7	[0, 0, 0]	-999	PAL1	1	R1185N
1044.119	0.001	1168631	TEST_PROBE	n/a	5	1	CAVE	CHEEK	CHEEK	CAVE	7	[0, 0, 0]	-999	PAL1	1	R1185N
1044.12	1.573	1168632	REC_START	n/a	5	-999	n/a	CHEEK	n/a	n/a	7	[0, 0, 0]	-999	PAL1	1	R1185N
1045.693	3.437	1170205	REC_EVENT	1573	5	1	CAVE	CHEEK	CHEEK	CAVE	7	[0, 0, 0]	-999	PAL1	1	R1185N
1049.13	0.007	1173642	REC_END	n/a	5	-999	n/a	n/a	n/a	n/a	7	[0, 0, 0]	-999	PAL1	1	R1185N
1049.137	0.9	1173649	TEST_ORIENT	n/a	2	2	BANK	JAIL	BANK	JAIL	7	[0, 0, 0]	-999	PAL1	1	R1185N
1050.037	0.001	1174549	TEST_PROBE	n/a	2	2	BANK	JAIL	BANK	JAIL	7	[0, 0, 0]	-999	PAL1	1	R1185N
1050.038	1.477	1174550	REC_START	n/a	2	-999	n/a	JAIL	n/a	n/a	7	[0, 0, 0]	-999	PAL1	1	R1185N
1051.515	3.539	1176027	REC_EVENT	1477	2	2	BANK	JAIL	BANK	JAIL	7	[0, 0, 0]	-999	PAL1	1	R1185N
1055.054	0.017	1179566	REC_END	n/a	2	-999	n/a	n/a	n/a	n/a	7	[0, 0, 0]	-999	PAL1	1	R1185N
1055.071	0.967	1179583	TEST_ORIENT	n/a	1	3	PEACH	DEER	DEER	PEACH	7	[0, 0, 0]	-999	PAL1	1	R1185N
1056.038	0.001	1180550	TEST_PROBE	n/a	1	3	PEACH	DEER	DEER	PEACH	7	[0, 0, 0]	-999	PAL1	1	R1185N
1056.039	1.93	1180551	REC_START	n/a	1	-999	n/a	DEER	n/a	n/a	7	[0, 0, 0]	-999	PAL1	1	R1185N
1057.969	3.086	1182480	REC_EVENT	1930	1	3	PEACH	DEER	DEER	PEACH	7	[0, 0, 0]	-999	PAL1	1	R1185N
1061.055	0.017	1185566	REC_END	n/a	1	-999	n/a	n/a	n/a	n/a	7	[0, 0, 0]	-999	PAL1	1	R1185N
1061.072	0.851	1185583	TEST_ORIENT	n/a	6	4	CAGE	GOLD	CAGE	GOLD	7	[0, 0, 0]	-999	PAL1	1	R1185N
1061.923	0.001	1186434	TEST_PROBE	n/a	6	4	CAGE	GOLD	CAGE	GOLD	7	[0, 0, 0]	-999	PAL1	1	R1185N
1061.924	1.257	1186435	REC_START	n/a	6	-999	n/a	GOLD	n/a	n/a	7	[0, 0, 0]	-999	PAL1	1	R1185N
1063.181	3.753	1187692	REC_EVENT	1257	6	4	CAGE	GOLD	CAGE	GOLD	7	[0, 0, 0]	-999	PAL1	1	R1185N
1066.934	0.023	1191445	REC_END	n/a	6	-999	n/a	n/a	n/a	n/a	7	[0, 0, 0]	-999	PAL1	1	R1185N
1066.957	0.8	1191468	TEST_ORIENT	n/a	3	5	TREE	FRUIT	FRUIT	TREE	7	[0, 0, 0]	-999	PAL1	1	R1185N
1067.757	0.0	1192268	REC_START	n/a	3	-999	n/a	FRUIT	n/a	n/a	7	[0, 0, 0]	-999	PAL1	1	R1185N
1067.757	1.011	1192268	TEST_PROBE	n/a	3	5	TREE	FRUIT	FRUIT	TREE	7	[0, 0, 0]	-999	PAL1	1	R1185N
1068.768	4.006	1193279	REC_EVENT	1011	3	5	TREE	FRUIT	FRUIT	TREE	7	[0, 0, 0]	-999	PAL1	1	R1185N
1072.774	0.017	1197285	REC_END	n/a	3	-999	n/a	n/a	n/a	n/a	7	[0, 0, 0]	-999	PAL1	1	R1185N
1072.791	0.933	1197302	TEST_ORIENT	n/a	4	6	BRUSH	GRASS	BRUSH	GRASS	7	[0, 0, 0]	-999	PAL1	1	R1185N
1073.724	0.001	1198235	TEST_PROBE	n/a	4	6	BRUSH	GRASS	BRUSH	GRASS	7	[0, 0, 0]	-999	PAL1	1	R1185N
1073.725	1.437	1198236	REC_START	n/a	4	-999	n/a	GRASS	n/a	n/a	7	[0, 0, 0]	-999	PAL1	1	R1185N
1075.162	3.573	1199673	REC_EVENT	1437	4	6	BRUSH	GRASS	BRUSH	GRASS	7	[0, 0, 0]	-999	PAL1	1	R1185N
1078.735	1301.802	1203246	REC_END	n/a	4	-999	n/a	n/a	n/a	n/a	7	[0, 0, 0]	-999	PAL1	1	R1185N
2380.537	10.444	2505000	ENCODING_START	n/a	0	-999	n/a	n/a	n/a	n/a	8	[0, 0, 0]	-999	PAL1	1	R1185N
2390.981	0.816	2515444	STUDY_ORIENT	n/a	1	5	LAND	FORK	FORK	LAND	8	[0, 0, 0]	-999	PAL1	1	R1185N
2391.797	5.018	2516260	STUDY_PAIR	n/a	1	5	LAND	FORK	FORK	LAND	8	[0, 0, 0]	-999	PAL1	1	R1185N
2396.815	0.883	2521278	STUDY_ORIENT	n/a	2	4	ANT	FLAG	FLAG	ANT	8	[0, 0, 0]	-999	PAL1	1	R1185N
2397.698	5.018	2522160	STUDY_PAIR	n/a	2	4	ANT	FLAG	FLAG	ANT	8	[0, 0, 0]	-999	PAL1	1	R1185N
2402.716	0.867	2527178	STUDY_ORIENT	n/a	3	1	PEN	SINK	SINK	PEN	8	[0, 0, 0]	-999	PAL1	1	R1185N
2403.583	5.034	2528045	STUDY_PAIR	n/a	3	1	PEN	SINK	SINK	PEN	8	[0, 0, 0]	-999	PAL1	1	R1185N
2408.617	0.85	2533079	STUDY_ORIENT	n/a	4	2	STORE	SEAT	SEAT	STORE	8	[0, 0, 0]	-999	PAL1	1	R1185N
2409.467	5.034	2533929	STUDY_PAIR	n/a	4	2	STORE	SEAT	SEAT	STORE	8	[0, 0, 0]	-999	PAL1	1	R1185N
2414.501	0.917	2538963	STUDY_ORIENT	n/a	5	3	ICE	SHEET	SEA	ICE	8	[0, 0, 0]	-999	PAL1	1	R1185N
2415.418	5.034	2539880	STUDY_PAIR	n/a	5	3	ICE	SHEET	SEA	ICE	8	[0, 0, 0]	-999	PAL1	1	R1185N
2420.452	0.934	2544914	STUDY_ORIENT	n/a	6	6	CROW	LOCK	CROW	LOCK	8	[0, 0, 0]	-999	PAL1	1	R1185N
2421.386	4.017	2545848	STUDY_PAIR	n/a	6	6	CROW	LOCK	CROW	LOCK	8	[0, 0, 0]	-999	PAL1	1	R1185N
2425.403	1.0	2549864	START	n/a	-999	-999	n/a	n/a	n/a	n/a	8	[-999, -999, -999]	-999	PAL1	1	R1185N
2426.403	0.017	2550864	MATH_START	n/a	-999	-999	n/a	n/a	n/a	n/a	8	[0, 0, 0]	-999	PAL1	1	R1185N
2426.42	7.785	2550881	PROB	7757	-999	-999	n/a	n/a	n/a	n/a	8	[2, 1, 5]	8	PAL1	1	R1185N
2434.205	3.2	2558666	PROB	3172	-999	-999	n/a	n/a	n/a	n/a	8	[1, 3, 1]	5	PAL1	1	R1185N
2437.405	3.917	2561866	PROB	3884	-999	-999	n/a	n/a	n/a	n/a	8	[6, 1, 6]	13	PAL1	1	R1185N
2441.322	7.655	2565783	PROB	7655	-999	-999	n/a	n/a	n/a	n/a	8	[4, 2, 2]	8	PAL1	1	R1185N
2448.977	0.013	2573438	STOP	n/a	-999	-999	n/a	n/a	n/a	n/a	8	[-999, -999, -999]	-999	PAL1	1	R1185N
2448.99	0.0	2573451	MATH_END	n/a	-999	-999	n/a	n/a	n/a	n/a	8	[0, 0, 0]	-999	PAL1	1	R1185N
2448.99	0.017	2573451	TEST_START	n/a	-999	-999	n/a	n/a	n/a	n/a	8	[0, 0, 0]	-999	PAL1	1	R1185N
2449.007	0.918	2573468	TEST_ORIENT	n/a	3	1	PEN	SINK	SINK	PEN	8	[0, 0, 0]	-999	PAL1	1	R1185N
2449.925	0.001	2574386	TEST_PROBE	n/a	3	1	PEN	SINK	SINK	PEN	8	[0, 0, 0]	-999	PAL1	1	R1185N
2449.926	1.589	2574387	REC_START	n/a	3	-999	n/a	SINK	n/a	n/a	8	[0, 0, 0]	-999	PAL1	1	R1185N
2451.515	1.0	2575976	REC_EVENT	1589	3	1	PEN	SINK	SINK	PEN	8	[0, 0, 0]	-999	PAL1	1	R1185N
2452.515	2.435	2576975	REC_EVENT	2589	3	1	PEN	<>	SINK	PEN	8	[0, 0, 0]	-999	PAL1	1	R1185N
2454.95	0.008	2579410	REC_END	n/a	3	-999	n/a	n/a	n/a	n/a	8	[0, 0, 0]	-999	PAL1	1	R1185N
2454.958	0.984	2579418	TEST_ORIENT	n/a	4	2	STORE	SEAT	SEAT	STORE	8	[0, 0, 0]	-999	PAL1	1	R1185N
2455.942	0.0	2580402	TEST_PROBE	n/a	4	2	STORE	SEAT	SEAT	STORE	8	[0, 0, 0]	-999	PAL1	1	R1185N
2455.942	1.618	2580402	REC_START	n/a	4	-999	n/a	SEAT	n/a	n/a	8	[0, 0, 0]	-999	PAL1	1	R1185N
2457.56	3.399	2582020	REC_EVENT	1618	4	2	STORE	SEAT	SEAT	STORE	8	[0, 0, 0]	-999	PAL1	1	R1185N
2460.959	0.017	2585419	REC_END	n/a	4	-999	n/a	n/a	n/a	n/a	8	[0, 0, 0]	-999	PAL1	1	R1185N
2460.976	0.983	2585436	TEST_ORIENT	n/a	5	3	ICE	SHEET	SEA	ICE	8	[0, 0, 0]	-999	PAL1	1	R1185N
2461.959	0.001	2586419	TEST_PROBE	n/a	5	3	ICE	SHEET	SEA	ICE	8	[0, 0, 0]	-999	PAL1	1	R1185N
2461.96	1.225	2586420	REC_START	n/a	5	-999	n/a	SHEET	n/a	n/a	8	[0, 0, 0]	-999	PAL1	1	R1185N
2463.185	3.79	2587645	REC_EVENT	1225	5	3	ICE	SHEET	SEA	ICE	8	[0, 0, 0]	-999	PAL1	1	R1185N
2466.975	0.019	2591435	REC_END	n/a	5	-999	n/a	n/a	n/a	n/a	8	[0, 0, 0]	-999	PAL1	1	R1185N
2466.994	0.85	2591454	TEST_ORIENT	n/a	2	4	ANT	FLAG	FLAG	ANT	8	[0, 0, 0]	-999	PAL1	1	R1185N
2467.844	0.0	2592304	TEST_PROBE	n/a	2	4	ANT	FLAG	FLAG	ANT	8	[0, 0, 0]	-999	PAL1	1	R1185N
2467.844	1.069	2592304	REC_START	n/a	2	-999	n/a	FLAG	n/a	n/a	8	[0, 0, 0]	-999	PAL1	1	R1185N
2468.913	3.948	2593373	REC_EVENT	1069	2	4	ANT	FLAG	FLAG	ANT	8	[0, 0, 0]	-999	PAL1	1	R1185N
2472.861	0.018	2597321	REC_END	n/a	2	-999	n/a	n/a	n/a	n/a	8	[0, 0, 0]	-999	PAL1	1	R1185N
2472.879	0.832	2597339	TEST_ORIENT	n/a	1	5	LAND	FORK	FORK	LAND	8	[0, 0, 0]	-999	PAL1	1	R1185N
2473.711	0.001	2598171	TEST_PROBE	n/a	1	5	LAND	FORK	FORK	LAND	8	[0, 0, 0]	-999	PAL1	1	R1185N
2473.712	1.434	2598172	REC_START	n/a	1	-999	n/a	FORK	n/a	n/a	8	[0, 0, 0]	-999	PAL1	1	R1185N
2475.146	3.575	2599606	REC_EVENT	1434	1	5	LAND	FORK	FORK	LAND	8	[0, 0, 0]	-999	PAL1	1	R1185N
2478.721	0.008	2603181	REC_END	n/a	1	-999	n/a	n/a	n/a	n/a	8	[0, 0, 0]	-999	PAL1	1	R1185N
2478.729	1.0	2603189	TEST_ORIENT	n/a	6	6	CROW	LOCK	CROW	LOCK	8	[0, 0, 0]	-999	PAL1	1	R1185N
2479.729	0.0	2604188	TEST_PROBE	n/a	6	6	CROW	LOCK	CROW	LOCK	8	[0, 0, 0]	-999	PAL1	1	R1185N
2479.729	1.263	2604188	REC_START	n/a	6	-999	n/a	LOCK	n/a	n/a	8	[0, 0, 0]	-999	PAL1	1	R1185N
2480.992	3.754	2605451	REC_EVENT	1263	6	6	CROW	LOCK	CROW	LOCK	8	[0, 0, 0]	-999	PAL1	1	R1185N
2484.746	1.463	2609205	REC_END	n/a	6	-999	n/a	n/a	n/a	n/a	8	[0, 0, 0]	-999	PAL1	1	R1185N
2486.209	10.44	2610668	ENCODING_START	n/a	0	-999	n/a	n/a	n/a	n/a	9	[0, 0, 0]	-999	PAL1	1	R1185N
2496.649	0.916	2621108	STUDY_ORIENT	n/a	1	5	FUDGE	SWORD	SWORD	FUDGE	9	[0, 0, 0]	-999	PAL1	1	R1185N
2497.565	5.018	2622024	STUDY_PAIR	n/a	1	5	FUDGE	SWORD	SWORD	FUDGE	9	[0, 0, 0]	-999	PAL1	1	R1185N
2502.583	0.833	2627042	STUDY_ORIENT	n/a	2	4	MULE	CAMEL	MULE	CLOWN	9	[0, 0, 0]	-999	PAL1	1	R1185N
2503.416	5.018	2627875	STUDY_PAIR	n/a	2	4	MULE	CAMEL	MULE	CLOWN	9	[0, 0, 0]	-999	PAL1	1	R1185N
2508.434	0.867	2632892	STUDY_ORIENT	n/a	3	3	GATE	n/a	GATE	SHEEP	9	[0, 0, 0]	-999	PAL1	1	R1185N
2509.301	5.034	2633759	STUDY_PAIR	n/a	3	3	GATE	n/a	GATE	SHEEP	9	[0, 0, 0]	-999	PAL1	1	R1185N
2514.335	0.983	2638793	STUDY_ORIENT	n/a	4	6	ARK	GOAT	GOAT	ARK	9	[0, 0, 0]	-999	PAL1	1	R1185N
2515.318	5.018	2639776	STUDY_PAIR	n/a	4	6	ARK	GOAT	GOAT	ARK	9	[0, 0, 0]	-999	PAL1	1	R1185N
2520.336	1.017	2644794	STUDY_ORIENT	n/a	5	1	VEST	CUBE	CUBE	VEST	9	[0, 0, 0]	-999	PAL1	1	R1185N
2521.353	5.034	2645811	STUDY_PAIR	n/a	5	1	VEST	CUBE	CUBE	VEST	9	[0, 0, 0]	-999	PAL1	1	R1185N
2526.387	0.817	2650845	STUDY_ORIENT	n/a	6	2	POLE	WHALE	WHALE	POLE	9	[0, 0, 0]	-999	PAL1	1	R1185N
2527.204	4.017	2651662	STUDY_PAIR	n/a	6	2	POLE	WHALE	WHALE	POLE	9	[0, 0, 0]	-999	PAL1	1	R1185N
2531.221	1.0	2655679	START	n/a	-999	-999	n/a	n/a	n/a	n/a	9	[-999, -999, -999]	-999	PAL1	1	R1185N
2532.221	0.017	2656679	MATH_START	n/a	-999	-999	n/a	n/a	n/a	n/a	9	[0, 0, 0]	-999	PAL1	1	R1185N
2532.238	8.918	2656696	PROB	8891	-999	-999	n/a	n/a	n/a	n/a	9	[7, 4, 5]	16	PAL1	1	R1185N
2541.156	21.901	2665613	PROB	21901	-999	-999	n/a	n/a	n/a	n/a	9	[8, 8, 7]	23	PAL1	1	R1185N
2563.057	0.002	2687513	STOP	n/a	-999	-999	n/a	n/a	n/a	n/a	9	[-999, -999, -999]	-999	PAL1	1	R1185N
2563.059	0.0	2687515	MATH_END	n/a	-999	-999	n/a	n/a	n/a	n/a	9	[0, 0, 0]	-999	PAL1	1	R1185N
2563.059	0.017	2687515	TEST_START	n/a	-999	-999	n/a	n/a	n/a	n/a	9	[0, 0, 0]	-999	PAL1	1	R1185N
2563.076	1.001	2687532	TEST_ORIENT	n/a	5	1	VEST	CUBE	CUBE	VEST	9	[0, 0, 0]	-999	PAL1	1	R1185N
2564.077	0.0	2688533	REC_START	n/a	5	-999	n/a	CUBE	n/a	n/a	9	[0, 0, 0]	-999	PAL1	1	R1185N
2564.077	1.495	2688533	TEST_PROBE	n/a	5	1	VEST	CUBE	CUBE	VEST	9	[0, 0, 0]	-999	PAL1	1	R1185N
2565.572	3.522	2690028	REC_EVENT	1495	5	1	VEST	CUBE	CUBE	VEST	9	[0, 0, 0]	-999	PAL1	1	R1185N
2569.094	0.017	2693550	REC_END	n/a	5	-999	n/a	n/a	n/a	n/a	9	[0, 0, 0]	-999	PAL1	1	R1185N
2569.111	0.883	2693567	TEST_ORIENT	n/a	6	2	POLE	WHALE	WHALE	POLE	9	[0, 0, 0]	-999	PAL1	1	R1185N
2569.994	0.001	2694450	TEST_PROBE	n/a	6	2	POLE	WHALE	WHALE	POLE	9	[0, 0, 0]	-999	PAL1	1	R1185N
2569.995	1.303	2694451	REC_START	n/a	6	-999	n/a	WHALE	n/a	n/a	9	[0, 0, 0]	-999	PAL1	1	R1185N
2571.298	3.707	2695754	REC_EVENT	1303	6	2	POLE	WHALE	WHALE	POLE	9	[0, 0, 0]	-999	PAL1	1	R1185N
2575.005	0.024	2699461	REC_END	n/a	6	-999	n/a	n/a	n/a	n/a	9	[0, 0, 0]	-999	PAL1	1	R1185N
2575.029	0.884	2699485	TEST_ORIENT	n/a	3	3	GATE	n/a	GATE	SHEEP	9	[0, 0, 0]	-999	PAL1	1	R1185N
2575.913	0.0	2700369	TEST_PROBE	n/a	3	3	GATE	n/a	GATE	SHEEP	9	[0, 0, 0]	-999	PAL1	1	R1185N
2575.913	5.027	2700369	REC_START	n/a	3	-999	n/a	n/a	n/a	n/a	9	[0, 0, 0]	-999	PAL1	1	R1185N
2580.94	0.0	2705396	REC_EVENT	5027	3	3	GATE	<>	GATE	SHEEP	9	[0, 0, 0]	-999	PAL1	1	R1185N
2580.94	0.006	2705396	REC_END	n/a	3	-999	n/a	n/a	n/a	n/a	9	[0, 0, 0]	-999	PAL1	1	R1185N
2580.946	0.9	2705402	TEST_ORIENT	n/a	2	4	MULE	CAMEL	MULE	CLOWN	9	[0, 0, 0]	-999	PAL1	1	R1185N
2581.846	0.001	2706302	TEST_PROBE	n/a	2	4	MULE	CAMEL	MULE	CLOWN	9	[0, 0, 0]	-999	PAL1	1	R1185N
2581.847	4.444	2706303	REC_START	n/a	2	-999	n/a	CAMEL	n/a	n/a	9	[0, 0, 0]	-999	PAL1	1	R1185N
2586.291	0.565	2710747	REC_EVENT	4444	2	4	MULE	CAMEL	MULE	CLOWN	9	[0, 0, 0]	-999	PAL1	1	R1185N
2586.856	0.008	2711312	REC_END	n/a	2	-999	n/a	n/a	n/a	n/a	9	[0, 0, 0]	-999	PAL1	1	R1185N
2586.864	0.983	2711320	TEST_ORIENT	n/a	1	5	FUDGE	SWORD	SWORD	FUDGE	9	[0, 0, 0]	-999	PAL1	1	R1185N
2587.847	0.001	2712303	TEST_PROBE	n/a	1	5	FUDGE	SWORD	SWORD	FUDGE	9	[0, 0, 0]	-999	PAL1	1	R1185N
2587.848	1.978	2712304	REC_START	n/a	1	-999	n/a	SWORD	n/a	n/a	9	[0, 0, 0]	-999	PAL1	1	R1185N
2589.826	3.031	2714281	REC_EVENT	1978	1	5	FUDGE	SWORD	SWORD	FUDGE	9	[0, 0, 0]	-999	PAL1	1	R1185N
2592.857	0.008	2717312	REC_END	n/a	1	-999	n/a	n/a	n/a	n/a	9	[0, 0, 0]	-999	PAL1	1	R1185N
2592.865	0.816	2717320	TEST_ORIENT	n/a	4	6	ARK	GOAT	GOAT	ARK	9	[0, 0, 0]	-999	PAL1	1	R1185N
2593.681	0.001	2718136	TEST_PROBE	n/a	4	6	ARK	GOAT	GOAT	ARK	9	[0, 0, 0]	-999	PAL1	1	R1185N
2593.682	1.278	2718137	REC_START	n/a	4	-999	n/a	GOAT	n/a	n/a	9	[0, 0, 0]	-999	PAL1	1	R1185N
2594.96	3.731	2719415	REC_EVENT	1278	4	6	ARK	GOAT	GOAT	ARK	9	[0, 0, 0]	-999	PAL1	1	R1185N
2598.691	1.166	2723146	REC_END	n/a	4	-999	n/a	n/a	n/a	n/a	9	[0, 0, 0]	-999	PAL1	1	R1185N
2599.857	10.444	2724312	ENCODING_START	n/a	0	-999	n/a	n/a	n/a	n/a	10	[0, 0, 0]	-999	PAL1	1	R1185N
2610.301	0.967	2734756	STUDY_ORIENT	n/a	1	1	BRICK	INK	BRICK	INK	10	[0, 0, 0]	-999	PAL1	1	R1185N
2611.268	5.034	2735723	STUDY_PAIR	n/a	1	1	BRICK	INK	BRICK	INK	10	[0, 0, 0]	-999	PAL1	1	R1185N
2616.302	0.85	2740756	STUDY_ORIENT	n/a	2	6	SNAKE	SWAMP	SNAKE	SWAMP	10	[0, 0, 0]	-999	PAL1	1	R1185N
2617.152	5.018	2741606	STUDY_PAIR	n/a	2	6	SNAKE	SWAMP	SNAKE	SWAMP	10	[0, 0, 0]	-999	PAL1	1	R1185N
2622.17	0.8	2746624	STUDY_ORIENT	n/a	3	5	JUDGE	NOSE	NOSE	JUDGE	10	[0, 0, 0]	-999	PAL1	1	R1185N
2622.97	5.034	2747424	STUDY_PAIR	n/a	3	5	JUDGE	NOSE	NOSE	JUDGE	10	[0, 0, 0]	-999	PAL1	1	R1185N
2628.004	1.0	2752458	STUDY_ORIENT	n/a	4	4	SLUSH	CAPE	SLUSH	CAPE	10	[0, 0, 0]	-999	PAL1	1	R1185N
2629.004	5.018	2753458	STUDY_PAIR	n/a	4	4	SLUSH	CAPE	SLUSH	CAPE	10	[0, 0, 0]	-999	PAL1	1	R1185N
2634.022	0.851	2758476	STUDY_ORIENT	n/a	5	3	CHAIR	SEED	CHAIR	SEED	10	[0, 0, 0]	-999	PAL1	1	R1185N
2634.873	5.034	2759327	STUDY_PAIR	n/a	5	3	CHAIR	SEED	CHAIR	SEED	10	[0, 0, 0]	-999	PAL1	1	R1185N
2639.907	1.0	2764361	STUDY_ORIENT	n/a	6	2	BAND	KEY	KEY	BAND	10	[0, 0, 0]	-999	PAL1	1	R1185N
2640.907	4.001	2765361	STUDY_PAIR	n/a	6	2	BAND	KEY	KEY	BAND	10	[0, 0, 0]	-999	PAL1	1	R1185N
2644.908	1.0	2769361	START	n/a	-999	-999	n/a	n/a	n/a	n/a	10	[-999, -999, -999]	-999	PAL1	1	R1185N
2645.908	0.017	2770361	MATH_START	n/a	-999	-999	n/a	n/a	n/a	n/a	10	[0, 0, 0]	-999	PAL1	1	R1185N
2645.925	16.568	2770378	PROB	16540	-999	-999	n/a	n/a	n/a	n/a	10	[8, 6, 3]	17	PAL1	1	R1185N
2662.493	10.484	2786946	PROB	10484	-999	-999	n/a	n/a	n/a	n/a	10	[7, 5, 1]	13	PAL1	1	R1185N
2672.977	0.018	2797429	STOP	n/a	-999	-999	n/a	n/a	n/a	n/a	10	[-999, -999, -999]	-999	PAL1	1	R1185N
2672.995	0.0	2797447	MATH_END	n/a	-999	-999	n/a	n/a	n/a	n/a	10	[0, 0, 0]	-999	PAL1	1	R1185N
2672.995	0.017	2797447	TEST_START	n/a	-999	-999	n/a	n/a	n/a	n/a	10	[0, 0, 0]	-999	PAL1	1	R1185N
2673.012	1.033	2797464	TEST_ORIENT	n/a	1	1	BRICK	INK	BRICK	INK	10	[0, 0, 0]	-999	PAL1	1	R1185N
2674.045	0.001	2798497	TEST_PROBE	n/a	1	1	BRICK	INK	BRICK	INK	10	[0, 0, 0]	-999	PAL1	1	R1185N
2674.046	1.312	2798498	REC_START	n/a	1	-999	n/a	INK	n/a	n/a	10	[0, 0, 0]	-999	PAL1	1	R1185N
2675.358	3.714	2799810	REC_EVENT	1312	1	1	BRICK	INK	BRICK	INK	10	[0, 0, 0]	-999	PAL1	1	R1185N
2679.072	0.007	2803524	REC_END	n/a	1	-999	n/a	n/a	n/a	n/a	10	[0, 0, 0]	-999	PAL1	1	R1185N
2679.079	0.835	2803531	TEST_ORIENT	n/a	6	2	BAND	KEY	KEY	BAND	10	[0, 0, 0]	-999	PAL1	1	R1185N
2679.914	0.0	2804366	TEST_PROBE	n/a	6	2	BAND	KEY	KEY	BAND	10	[0, 0, 0]	-999	PAL1	1	R1185N
2679.914	1.757	2804366	REC_START	n/a	6	-999	n/a	KEY	n/a	n/a	10	[0, 0, 0]	-999	PAL1	1	R1185N
2681.671	3.26	2806123	REC_EVENT	1757	6	2	BAND	KEY	KEY	BAND	10	[0, 0, 0]	-999	PAL1	1	R1185N
2684.931	0.016	2809383	REC_END	n/a	6	-999	n/a	n/a	n/a	n/a	10	[0, 0, 0]	-999	PAL1	1	R1185N
2684.947	0.817	2809399	TEST_ORIENT	n/a	5	3	CHAIR	SEED	CHAIR	SEED	10	[0, 0, 0]	-999	PAL1	1	R1185N
2685.764	0.0	2810216	TEST_PROBE	n/a	5	3	CHAIR	SEED	CHAIR	SEED	10	[0, 0, 0]	-999	PAL1	1	R1185N
2685.764	0.972	2810216	REC_START	n/a	5	-999	n/a	SEED	n/a	n/a	10	[0, 0, 0]	-999	PAL1	1	R1185N
2686.736	4.045	2811188	REC_EVENT	972	5	3	CHAIR	SEED	CHAIR	SEED	10	[0, 0, 0]	-999	PAL1	1	R1185N
2690.781	0.017	2815233	REC_END	n/a	5	-999	n/a	n/a	n/a	n/a	10	[0, 0, 0]	-999	PAL1	1	R1185N
2690.798	0.833	2815250	TEST_ORIENT	n/a	4	4	SLUSH	CAPE	SLUSH	CAPE	10	[0, 0, 0]	-999	PAL1	1	R1185N
2691.631	0.001	2816083	TEST_PROBE	n/a	4	4	SLUSH	CAPE	SLUSH	CAPE	10	[0, 0, 0]	-999	PAL1	1	R1185N
2691.632	1.063	2816084	REC_START	n/a	4	-999	n/a	CAPE	n/a	n/a	10	[0, 0, 0]	-999	PAL1	1	R1185N
2692.695	3.937	2817147	REC_EVENT	1063	4	4	SLUSH	CAPE	SLUSH	CAPE	10	[0, 0, 0]	-999	PAL1	1	R1185N
2696.632	0.017	2821084	REC_END	n/a	4	-999	n/a	n/a	n/a	n/a	10	[0, 0, 0]	-999	PAL1	1	R1185N
2696.649	0.8	2821101	TEST_ORIENT	n/a	3	5	JUDGE	NOSE	NOSE	JUDGE	10	[0, 0, 0]	-999	PAL1	1	R1185N
2697.449	0.001	2821901	TEST_PROBE	n/a	3	5	JUDGE	NOSE	NOSE	JUDGE	10	[0, 0, 0]	-999	PAL1	1	R1185N
2697.45	1.016	2821902	REC_START	n/a	3	-999	n/a	NOSE	n/a	n/a	10	[0, 0, 0]	-999	PAL1	1	R1185N
2698.466	4.01	2822917	REC_EVENT	1016	3	5	JUDGE	NOSE	NOSE	JUDGE	10	[0, 0, 0]	-999	PAL1	1	R1185N
2702.476	0.007	2826927	REC_END	n/a	3	-999	n/a	n/a	n/a	n/a	10	[0, 0, 0]	-999	PAL1	1	R1185N
2702.483	0.951	2826934	TEST_ORIENT	n/a	2	6	SNAKE	SWAMP	SNAKE	SWAMP	10	[0, 0, 0]	-999	PAL1	1	R1185N
2703.434	0.0	2827885	REC_START	n/a	2	-999	n/a	SWAMP	n/a	n/a	10	[0, 0, 0]	-999	PAL1	1	R1185N
2703.434	1.049	2827885	TEST_PROBE	n/a	2	6	SNAKE	SWAMP	SNAKE	SWAMP	10	[0, 0, 0]	-999	PAL1	1	R1185N
2704.483	3.968	2828934	REC_EVENT	1049	2	6	SNAKE	SWAMP	SNAKE	SWAMP	10	[0, 0, 0]	-999	PAL1	1	R1185N
2708.451	1.302	2832902	REC_END	n/a	2	-999	n/a	n/a	n/a	n/a	10	[0, 0, 0]	-999	PAL1	1	R1185N
2709.753	10.45	2834204	ENCODING_START	n/a	0	-999	n/a	n/a	n/a	n/a	11	[0, 0, 0]	-999	PAL1	1	R1185N
2720.203	0.867	2844654	STUDY_ORIENT	n/a	1	1	HOUSE	BAT	BAT	HOUSE	11	[0, 0, 0]	-999	PAL1	1	R1185N
2721.07	5.034	2845521	STUDY_PAIR	n/a	1	1	HOUSE	BAT	BAT	HOUSE	11	[0, 0, 0]	-999	PAL1	1	R1185N
2726.104	0.784	2850554	STUDY_ORIENT	n/a	2	6	WING	SPRING	SPRING	WING	11	[0, 0, 0]	-999	PAL1	1	R1185N
2726.888	5.018	2851338	STUDY_PAIR	n/a	2	6	WING	SPRING	SPRING	WING	11	[0, 0, 0]	-999	PAL1	1	R1185N
2731.906	0.865	2856356	STUDY_ORIENT	n/a	3	3	RICE	WEB	WEB	RICE	11	[0, 0, 0]	-999	PAL1	1	R1185N
2732.771	5.018	2857221	STUDY_PAIR	n/a	3	3	RICE	WEB	WEB	RICE	11	[0, 0, 0]	-999	PAL1	1	R1185N
2737.789	0.917	2862239	STUDY_ORIENT	n/a	4	2	PANTS	SMOKE	SMOKE	PANTS	11	[0, 0, 0]	-999	PAL1	1	R1185N
2738.706	5.034	2863156	STUDY_PAIR	n/a	4	2	PANTS	SMOKE	SMOKE	PANTS	11	[0, 0, 0]	-999	PAL1	1	R1185N
2743.74	1.017	2868190	STUDY_ORIENT	n/a	5	5	CROWN	ROOT	CROWN	ROOT	11	[0, 0, 0]	-999	PAL1	1	R1185N
2744.757	5.034	2869207	STUDY_PAIR	n/a	5	5	CROWN	ROOT	CROWN	ROOT	11	[0, 0, 0]	-999	PAL1	1	R1185N
2749.791	0.967	2874241	STUDY_ORIENT	n/a	6	4	PEAR	CLIFF	CLIFF	PEAR	11	[0, 0, 0]	-999	PAL1	1	R1185N
2750.758	4.018	2875208	STUDY_PAIR	n/a	6	4	PEAR	CLIFF	CLIFF	PEAR	11	[0, 0, 0]	-999	PAL1	1	R1185N
2754.776	1.0	2879225	START	n/a	-999	-999	n/a	n/a	n/a	n/a	11	[-999, -999, -999]	-999	PAL1	1	R1185N
2755.776	0.016	2880225	MATH_START	n/a	-999	-999	n/a	n/a	n/a	n/a	11	[0, 0, 0]	-999	PAL1	1	R1185N
2755.792	3.918	2880241	PROB	3897	-999	-999	n/a	n/a	n/a	n/a	11	[7, 8, 2]	17	PAL1	1	R1185N
2759.71	3.517	2884159	PROB	3483	-999	-999	n/a	n/a	n/a	n/a	11	[6, 1, 4]	11	PAL1	1	R1185N
2763.227	4.351	2887676	PROB	4318	-999	-999	n/a	n/a	n/a	n/a	11	[7, 2, 1]	10	PAL1	1	R1185N
2767.578	7.727	2892027	PROB	7727	-999	-999	n/a	n/a	n/a	n/a	11	[4, 4, 7]	15	PAL1	1	R1185N
2775.305	0.007	2899754	STOP	n/a	-999	-999	n/a	n/a	n/a	n/a	11	[-999, -999, -999]	-999	PAL1	1	R1185N
2775.312	0.0	2899761	TEST_START	n/a	-999	-999	n/a	n/a	n/a	n/a	11	[0, 0, 0]	-999	PAL1	1	R1185N
2775.312	0.017	2899761	MATH_END	n/a	-999	-999	n/a	n/a	n/a	n/a	11	[0, 0, 0]	-999	PAL1	1	R1185N
2775.329	0.983	2899778	TEST_ORIENT	n/a	1	1	HOUSE	BAT	BAT	HOUSE	11	[0, 0, 0]	-999	PAL1	1	R1185N
2776.312	0.001	2900761	TEST_PROBE	n/a	1	1	HOUSE	BAT	BAT	HOUSE	11	[0, 0, 0]	-999	PAL1	1	R1185N
2776.313	1.354	2900762	REC_START	n/a	1	-999	n/a	BAT	n/a	n/a	11	[0, 0, 0]	-999	PAL1	1	R1185N
2777.667	3.646	2902116	REC_EVENT	1354	1	1	HOUSE	BAT	BAT	HOUSE	11	[0, 0, 0]	-999	PAL1	1	R1185N
2781.313	0.017	2905761	REC_END	n/a	1	-999	n/a	n/a	n/a	n/a	11	[0, 0, 0]	-999	PAL1	1	R1185N
2781.33	0.8	2905778	TEST_ORIENT	n/a	4	2	PANTS	SMOKE	SMOKE	PANTS	11	[0, 0, 0]	-999	PAL1	1	R1185N
2782.13	0.001	2906578	TEST_PROBE	n/a	4	2	PANTS	SMOKE	SMOKE	PANTS	11	[0, 0, 0]	-999	PAL1	1	R1185N
2782.131	1.002	2906579	REC_START	n/a	4	-999	n/a	SMOKE	n/a	n/a	11	[0, 0, 0]	-999	PAL1	1	R1185N
2783.133	4.024	2907581	REC_EVENT	1002	4	2	PANTS	SMOKE	SMOKE	PANTS	11	[0, 0, 0]	-999	PAL1	1	R1185N
2787.157	0.007	2911605	REC_END	n/a	4	-999	n/a	n/a	n/a	n/a	11	[0, 0, 0]	-999	PAL1	1	R1185N
2787.164	0.8	2911612	TEST_ORIENT	n/a	3	3	RICE	WEB	WEB	RICE	11	[0, 0, 0]	-999	PAL1	1	R1185N
2787.964	0.001	2912412	TEST_PROBE	n/a	3	3	RICE	WEB	WEB	RICE	11	[0, 0, 0]	-999	PAL1	1	R1185N
2787.965	1.115	2912413	REC_START	n/a	3	-999	n/a	WEB	n/a	n/a	11	[0, 0, 0]	-999	PAL1	1	R1185N
2789.08	3.894	2913528	REC_EVENT	1115	3	3	RICE	WEB	WEB	RICE	11	[0, 0, 0]	-999	PAL1	1	R1185N
2792.974	0.008	2917422	REC_END	n/a	3	-999	n/a	n/a	n/a	n/a	11	[0, 0, 0]	-999	PAL1	1	R1185N
2792.982	0.951	2917430	TEST_ORIENT	n/a	6	4	PEAR	CLIFF	CLIFF	PEAR	11	[0, 0, 0]	-999	PAL1	1	R1185N
2793.933	0.001	2918381	TEST_PROBE	n/a	6	4	PEAR	CLIFF	CLIFF	PEAR	11	[0, 0, 0]	-999	PAL1	1	R1185N
2793.934	1.167	2918382	REC_START	n/a	6	-999	n/a	CLIFF	n/a	n/a	11	[0, 0, 0]	-999	PAL1	1	R1185N
2795.101	3.848	2919549	REC_EVENT	1167	6	4	PEAR	CLIFF	CLIFF	PEAR	11	[0, 0, 0]	-999	PAL1	1	R1185N
2798.949	0.017	2923397	REC_END	n/a	6	-999	n/a	n/a	n/a	n/a	11	[0, 0, 0]	-999	PAL1	1	R1185N
2798.966	1.0	2923414	TEST_ORIENT	n/a	5	5	CROWN	ROOT	CROWN	ROOT	11	[0, 0, 0]	-999	PAL1	1	R1185N
2799.966	0.001	2924414	TEST_PROBE	n/a	5	5	CROWN	ROOT	CROWN	ROOT	11	[0, 0, 0]	-999	PAL1	1	R1185N
2799.967	1.284	2924415	REC_START	n/a	5	-999	n/a	ROOT	n/a	n/a	11	[0, 0, 0]	-999	PAL1	1	R1185N
2801.251	3.725	2925699	REC_EVENT	1284	5	5	CROWN	ROOT	CROWN	ROOT	11	[0, 0, 0]	-999	PAL1	1	R1185N
2804.976	0.008	2929424	REC_END	n/a	5	-999	n/a	n/a	n/a	n/a	11	[0, 0, 0]	-999	PAL1	1	R1185N
2804.984	1.0	2929432	TEST_ORIENT	n/a	2	6	WING	SPRING	SPRING	WING	11	[0, 0, 0]	-999	PAL1	1	R1185N
2805.984	0.001	2930432	TEST_PROBE	n/a	2	6	WING	SPRING	SPRING	WING	11	[0, 0, 0]	-999	PAL1	1	R1185N
2805.985	1.158	2930433	REC_START	n/a	2	-999	n/a	SPRING	n/a	n/a	11	[0, 0, 0]	-999	PAL1	1	R1185N
2807.143	3.858	2931591	REC_EVENT	1158	2	6	WING	SPRING	SPRING	WING	11	[0, 0, 0]	-999	PAL1	1	R1185N
2811.001	1.504	2935448	REC_END	n/a	2	-999	n/a	n/a	n/a	n/a	11	[0, 0, 0]	-999	PAL1	1	R1185N
2812.505	10.449	2936952	ENCODING_START	n/a	0	-999	n/a	n/a	n/a	n/a	12	[0, 0, 0]	-999	PAL1	1	R1185N
2822.954	1.0	2947401	STUDY_ORIENT	n/a	1	1	STOVE	EGG	STOVE	EGG	12	[0, 0, 0]	-999	PAL1	1	R1185N
2823.954	5.034	2948401	STUDY_PAIR	n/a	1	1	STOVE	EGG	STOVE	EGG	12	[0, 0, 0]	-999	PAL1	1	R1185N
2828.988	0.885	2953435	STUDY_ORIENT	n/a	2	2	TRASH	n/a	TRASH	SPARK	12	[0, 0, 0]	-999	PAL1	1	R1185N
2829.873	5.034	2954320	STUDY_PAIR	n/a	2	2	TRASH	n/a	TRASH	SPARK	12	[0, 0, 0]	-999	PAL1	1	R1185N
2834.907	0.832	2959354	STUDY_ORIENT	n/a	3	5	POOL	n/a	POOL	DESK	12	[0, 0, 0]	-999	PAL1	1	R1185N
2835.739	5.034	2960185	STUDY_PAIR	n/a	3	5	POOL	n/a	POOL	DESK	12	[0, 0, 0]	-999	PAL1	1	R1185N
2840.773	0.884	2965219	STUDY_ORIENT	n/a	4	6	PIN	n/a	TRAY	PIN	12	[0, 0, 0]	-999	PAL1	1	R1185N
2841.657	5.034	2966103	STUDY_PAIR	n/a	4	6	PIN	n/a	TRAY	PIN	12	[0, 0, 0]	-999	PAL1	1	R1185N
2846.691	0.95	2971137	STUDY_ORIENT	n/a	5	3	MOUSE	n/a	SCHOOL	MOUSE	12	[0, 0, 0]	-999	PAL1	1	R1185N
2847.641	5.018	2972087	STUDY_PAIR	n/a	5	3	MOUSE	n/a	SCHOOL	MOUSE	12	[0, 0, 0]	-999	PAL1	1	R1185N
2852.659	0.8	2977105	STUDY_ORIENT	n/a	6	4	BEAN	n/a	CORD	BEAN	12	[0, 0, 0]	-999	PAL1	1	R1185N
2853.459	4.018	2977905	STUDY_PAIR	n/a	6	4	BEAN	n/a	CORD	BEAN	12	[0, 0, 0]	-999	PAL1	1	R1185N
2857.477	0.999	2981923	START	n/a	-999	-999	n/a	n/a	n/a	n/a	12	[-999, -999, -999]	-999	PAL1	1	R1185N
2858.476	0.017	2982922	MATH_START	n/a	-999	-999	n/a	n/a	n/a	n/a	12	[0, 0, 0]	-999	PAL1	1	R1185N
2858.493	7.151	2982939	PROB	7132	-999	-999	n/a	n/a	n/a	n/a	12	[8, 3, 6]	17	PAL1	1	R1185N
2865.644	3.584	2990089	PROB	3557	-999	-999	n/a	n/a	n/a	n/a	12	[4, 1, 7]	12	PAL1	1	R1185N
2869.228	3.934	2993673	PROB	3901	-999	-999	n/a	n/a	n/a	n/a	12	[3, 3, 1]	7	PAL1	1	R1185N
2873.162	14.839	2997607	PROB	14839	-999	-999	n/a	n/a	n/a	n/a	12	[5, 9, 6]	20	PAL1	1	R1185N
2888.001	0.014	3012446	STOP	n/a	-999	-999	n/a	n/a	n/a	n/a	12	[-999, -999, -999]	-999	PAL1	1	R1185N
2888.015	0.0	3012460	TEST_START	n/a	-999	-999	n/a	n/a	n/a	n/a	12	[0, 0, 0]	-999	PAL1	1	R1185N
2888.015	0.016	3012460	MATH_END	n/a	-999	-999	n/a	n/a	n/a	n/a	12	[0, 0, 0]	-999	PAL1	1	R1185N
2888.031	1.001	3012476	TEST_ORIENT	n/a	1	1	STOVE	EGG	STOVE	EGG	12	[0, 0, 0]	-999	PAL1	1	R1185N
2889.032	0.0	3013477	TEST_PROBE	n/a	1	1	STOVE	EGG	STOVE	EGG	12	[0, 0, 0]	-999	PAL1	1	R1185N
2889.032	1.146	3013477	REC_START	n/a	1	-999	n/a	EGG	n/a	n/a	12	[0, 0, 0]	-999	PAL1	1	R1185N
2890.178	3.871	3014622	REC_EVENT	1146	1	1	STOVE	EGG	STOVE	EGG	12	[0, 0, 0]	-999	PAL1	1	R1185N
2894.049	0.017	3018493	REC_END	n/a	1	-999	n/a	n/a	n/a	n/a	12	[0, 0, 0]	-999	PAL1	1	R1185N
2894.066	1.033	3018510	TEST_ORIENT	n/a	2	2	TRASH	n/a	TRASH	SPARK	12	[0, 0, 0]	-999	PAL1	1	R1185N
2895.099	0.001	3019543	TEST_PROBE	n/a	2	2	TRASH	n/a	TRASH	SPARK	12	[0, 0, 0]	-999	PAL1	1	R1185N
2895.1	5.009	3019544	REC_START	n/a	2	-999	n/a	n/a	n/a	n/a	12	[0, 0, 0]	-999	PAL1	1	R1185N
2900.109	0.0	3024553	REC_END	n/a	2	-999	n/a	n/a	n/a	n/a	12	[0, 0, 0]	-999	PAL1	1	R1185N
2900.109	0.007	3024553	REC_EVENT	5009	2	2	TRASH	<>	TRASH	SPARK	12	[0, 0, 0]	-999	PAL1	1	R1185N
2900.116	0.868	3024560	TEST_ORIENT	n/a	5	3	MOUSE	n/a	SCHOOL	MOUSE	12	[0, 0, 0]	-999	PAL1	1	R1185N
2900.984	0.0	3025428	TEST_PROBE	n/a	5	3	MOUSE	n/a	SCHOOL	MOUSE	12	[0, 0, 0]	-999	PAL1	1	R1185N
2900.984	5.015	3025428	REC_START	n/a	5	-999	n/a	n/a	n/a	n/a	12	[0, 0, 0]	-999	PAL1	1	R1185N
2905.999	0.002	3030443	REC_EVENT	5015	5	3	MOUSE	<>	SCHOOL	MOUSE	12	[0, 0, 0]	-999	PAL1	1	R1185N
2906.001	0.017	3030445	REC_END	n/a	5	-999	n/a	n/a	n/a	n/a	12	[0, 0, 0]	-999	PAL1	1	R1185N
2906.018	0.95	3030462	TEST_ORIENT	n/a	6	4	BEAN	n/a	CORD	BEAN	12	[0, 0, 0]	-999	PAL1	1	R1185N
2906.968	0.0	3031412	REC_START	n/a	6	-999	n/a	n/a	n/a	n/a	12	[0, 0, 0]	-999	PAL1	1	R1185N
2906.968	5.015	3031412	TEST_PROBE	n/a	6	4	BEAN	n/a	CORD	BEAN	12	[0, 0, 0]	-999	PAL1	1	R1185N
2911.983	0.002	3036427	REC_EVENT	5015	6	4	BEAN	<>	CORD	BEAN	12	[0, 0, 0]	-999	PAL1	1	R1185N
2911.985	0.017	3036429	REC_END	n/a	6	-999	n/a	n/a	n/a	n/a	12	[0, 0, 0]	-999	PAL1	1	R1185N
2912.002	0.8	3036446	TEST_ORIENT	n/a	3	5	POOL	n/a	POOL	DESK	12	[0, 0, 0]	-999	PAL1	1	R1185N
2912.802	0.001	3037246	TEST_PROBE	n/a	3	5	POOL	n/a	POOL	DESK	12	[0, 0, 0]	-999	PAL1	1	R1185N
2912.803	2.344	3037247	REC_START	n/a	3	-999	n/a	n/a	n/a	n/a	12	[0, 0, 0]	-999	PAL1	1	R1185N
2915.147	2.666	3039591	REC_EVENT	2344	3	5	POOL	<>	POOL	DESK	12	[0, 0, 0]	-999	PAL1	1	R1185N
2917.813	0.006	3042256	REC_END	n/a	3	-999	n/a	n/a	n/a	n/a	12	[0, 0, 0]	-999	PAL1	1	R1185N
2917.819	0.951	3042262	TEST_ORIENT	n/a	4	6	PIN	n/a	TRAY	PIN	12	[0, 0, 0]	-999	PAL1	1	R1185N
2918.77	0.0	3043213	REC_START	n/a	4	-999	n/a	n/a	n/a	n/a	12	[0, 0, 0]	-999	PAL1	1	R1185N
2918.77	5.015	3043213	TEST_PROBE	n/a	4	6	PIN	n/a	TRAY	PIN	12	[0, 0, 0]	-999	PAL1	1	R1185N
2923.785	0.002	3048228	REC_EVENT	5015	4	6	PIN	<>	TRAY	PIN	12	[0, 0, 0]	-999	PAL1	1	R1185N
2923.787	28.566	3048230	REC_END	n/a	4	-999	n/a	n/a	n/a	n/a	12	[0, 0, 0]	-999	PAL1	1	R1185N
2952.353	10.441	3076795	ENCODING_START	n/a	0	-999	n/a	n/a	n/a	n/a	13	[0, 0, 0]	-999	PAL1	1	R1185N
2962.794	0.883	3087236	STUDY_ORIENT	n/a	1	1	BALL	FAN	BALL	FAN	13	[0, 0, 0]	-999	PAL1	1	R1185N
2963.677	5.018	3088119	STUDY_PAIR	n/a	1	1	BALL	FAN	BALL	FAN	13	[0, 0, 0]	-999	PAL1	1	R1185N
2968.695	0.8	3093137	STUDY_ORIENT	n/a	2	4	PARK	HOSE	PARK	HOSE	13	[0, 0, 0]	-999	PAL1	1	R1185N
2969.495	5.034	3093937	STUDY_PAIR	n/a	2	4	PARK	HOSE	PARK	HOSE	13	[0, 0, 0]	-999	PAL1	1	R1185N
2974.529	0.784	3098970	STUDY_ORIENT	n/a	3	5	FUR	n/a	SOAP	FUR	13	[0, 0, 0]	-999	PAL1	1	R1185N
2975.313	5.034	3099754	STUDY_PAIR	n/a	3	5	FUR	n/a	SOAP	FUR	13	[0, 0, 0]	-999	PAL1	1	R1185N
2980.347	0.867	3104788	STUDY_ORIENT	n/a	4	2	MOOSE	n/a	CORN	MOOSE	13	[0, 0, 0]	-999	PAL1	1	R1185N
2981.214	5.034	3105655	STUDY_PAIR	n/a	4	2	MOOSE	n/a	CORN	MOOSE	13	[0, 0, 0]	-999	PAL1	1	R1185N
2986.248	0.8	3110689	STUDY_ORIENT	n/a	5	3	PEARL	CHIN	CHIN	PEARL	13	[0, 0, 0]	-999	PAL1	1	R1185N
2987.048	5.034	3111489	STUDY_PAIR	n/a	5	3	PEARL	CHIN	CHIN	PEARL	13	[0, 0, 0]	-999	PAL1	1	R1185N
2992.082	0.9	3116523	STUDY_ORIENT	n/a	6	6	PLANE	BAG	BAG	PLANE	13	[0, 0, 0]	-999	PAL1	1	R1185N
2992.982	4.001	3117423	STUDY_PAIR	n/a	6	6	PLANE	BAG	BAG	PLANE	13	[0, 0, 0]	-999	PAL1	1	R1185N
2996.983	1.0	3121424	START	n/a	-999	-999	n/a	n/a	n/a	n/a	13	[-999, -999, -999]	-999	PAL1	1	R1185N
2997.983	0.017	3122424	MATH_START	n/a	-999	-999	n/a	n/a	n/a	n/a	13	[0, 0, 0]	-999	PAL1	1	R1185N
2998.0	4.234	3122441	PROB	4209	-999	-999	n/a	n/a	n/a	n/a	13	[1, 9, 7]	17	PAL1	1	R1185N
3002.234	10.552	3126674	PROB	10527	-999	-999	n/a	n/a	n/a	n/a	13	[6, 1, 8]	16	PAL1	1	R1185N
3012.786	4.663	3137226	PROB	4663	-999	-999	n/a	n/a	n/a	n/a	13	[8, 2, 1]	11	PAL1	1	R1185N
3017.449	0.004	3141889	STOP	n/a	-999	-999	n/a	n/a	n/a	n/a	13	[-999, -999, -999]	-999	PAL1	1	R1185N
3017.453	0.0	3141893	TEST_START	n/a	-999	-999	n/a	n/a	n/a	n/a	13	[0, 0, 0]	-999	PAL1	1	R1185N
3017.453	0.017	3141893	MATH_END	n/a	-999	-999	n/a	n/a	n/a	n/a	13	[0, 0, 0]	-999	PAL1	1	R1185N
3017.47	0.983	3141910	TEST_ORIENT	n/a	1	1	BALL	FAN	BALL	FAN	13	[0, 0, 0]	-999	PAL1	1	R1185N
3018.453	0.001	3142893	TEST_PROBE	n/a	1	1	BALL	FAN	BALL	FAN	13	[0, 0, 0]	-999	PAL1	1	R1185N
3018.454	2.36	3142894	REC_START	n/a	1	-999	n/a	FAN	n/a	n/a	13	[0, 0, 0]	-999	PAL1	1	R1185N
3020.814	2.649	3145254	REC_EVENT	2360	1	1	BALL	FAN	BALL	FAN	13	[0, 0, 0]	-999	PAL1	1	R1185N
3023.463	0.008	3147903	REC_END	n/a	1	-999	n/a	n/a	n/a	n/a	13	[0, 0, 0]	-999	PAL1	1	R1185N
3023.471	0.95	3147911	TEST_ORIENT	n/a	4	2	MOOSE	n/a	CORN	MOOSE	13	[0, 0, 0]	-999	PAL1	1	R1185N
3024.421	0.001	3148861	TEST_PROBE	n/a	4	2	MOOSE	n/a	CORN	MOOSE	13	[0, 0, 0]	-999	PAL1	1	R1185N
3024.422	5.015	3148862	REC_START	n/a	4	-999	n/a	n/a	n/a	n/a	13	[0, 0, 0]	-999	PAL1	1	R1185N
3029.437	0.001	3153876	REC_EVENT	5015	4	2	MOOSE	<>	CORN	MOOSE	13	[0, 0, 0]	-999	PAL1	1	R1185N
3029.438	0.017	3153877	REC_END	n/a	4	-999	n/a	n/a	n/a	n/a	13	[0, 0, 0]	-999	PAL1	1	R1185N
3029.455	0.8	3153894	TEST_ORIENT	n/a	5	3	PEARL	CHIN	CHIN	PEARL	13	[0, 0, 0]	-999	PAL1	1	R1185N
3030.255	0.001	3154694	TEST_PROBE	n/a	5	3	PEARL	CHIN	CHIN	PEARL	13	[0, 0, 0]	-999	PAL1	1	R1185N
3030.256	1.371	3154695	REC_START	n/a	5	-999	n/a	CHIN	n/a	n/a	13	[0, 0, 0]	-999	PAL1	1	R1185N
3031.627	3.638	3156066	REC_EVENT	1371	5	3	PEARL	CHIN	CHIN	PEARL	13	[0, 0, 0]	-999	PAL1	1	R1185N
3035.265	0.008	3159704	REC_END	n/a	5	-999	n/a	n/a	n/a	n/a	13	[0, 0, 0]	-999	PAL1	1	R1185N
3035.273	0.95	3159712	TEST_ORIENT	n/a	2	4	PARK	HOSE	PARK	HOSE	13	[0, 0, 0]	-999	PAL1	1	R1185N
3036.223	0.0	3160662	REC_START	n/a	2	-999	n/a	HOSE	n/a	n/a	13	[0, 0, 0]	-999	PAL1	1	R1185N
3036.223	1.244	3160662	TEST_PROBE	n/a	2	4	PARK	HOSE	PARK	HOSE	13	[0, 0, 0]	-999	PAL1	1	R1185N
3037.467	3.773	3161906	REC_EVENT	1244	2	4	PARK	HOSE	PARK	HOSE	13	[0, 0, 0]	-999	PAL1	1	R1185N
3041.24	0.017	3165679	REC_END	n/a	2	-999	n/a	n/a	n/a	n/a	13	[0, 0, 0]	-999	PAL1	1	R1185N
3041.257	1.05	3165696	TEST_ORIENT	n/a	3	5	FUR	n/a	SOAP	FUR	13	[0, 0, 0]	-999	PAL1	1	R1185N
3042.307	0.001	3166746	TEST_PROBE	n/a	3	5	FUR	n/a	SOAP	FUR	13	[0, 0, 0]	-999	PAL1	1	R1185N
3042.308	5.009	3166747	REC_START	n/a	3	-999	n/a	n/a	n/a	n/a	13	[0, 0, 0]	-999	PAL1	1	R1185N
3047.317	0.001	3171756	REC_EVENT	5009	3	5	FUR	<>	SOAP	FUR	13	[0, 0, 0]	-999	PAL1	1	R1185N
3047.318	0.007	3171757	REC_END	n/a	3	-999	n/a	n/a	n/a	n/a	13	[0, 0, 0]	-999	PAL1	1	R1185N
3047.325	1.034	3171764	TEST_ORIENT	n/a	6	6	PLANE	BAG	BAG	PLANE	13	[0, 0, 0]	-999	PAL1	1	R1185N
3048.359	0.0	3172798	TEST_PROBE	n/a	6	6	PLANE	BAG	BAG	PLANE	13	[0, 0, 0]	-999	PAL1	1	R1185N
3048.359	2.545	3172798	REC_START	n/a	6	-999	n/a	BAG	n/a	n/a	13	[0, 0, 0]	-999	PAL1	1	R1185N
3050.904	2.472	3175343	REC_EVENT	2545	6	6	PLANE	BAG	BAG	PLANE	13	[0, 0, 0]	-999	PAL1	1	R1185N
3053.376	156.729	3177815	REC_END	n/a	6	-999	n/a	n/a	n/a	n/a	13	[0, 0, 0]	-999	PAL1	1	R1185N
3210.105	10.449	3334538	ENCODING_START	n/a	0	-999	n/a	n/a	n/a	n/a	14	[0, 0, 0]	-999	PAL1	1	R1185N
3220.554	0.85	3344986	STUDY_ORIENT	n/a	1	3	CAT	DOOR	DOOR	CAT	14	[0, 0, 0]	-999	PAL1	1	R1185N
3221.404	5.018	3345836	STUDY_PAIR	n/a	1	3	CAT	DOOR	DOOR	CAT	14	[0, 0, 0]	-999	PAL1	1	R1185N
3226.422	0.867	3350854	STUDY_ORIENT	n/a	2	2	TOOTH	FLOOR	STONE	TOOTH	14	[0, 0, 0]	-999	PAL1	1	R1185N
3227.289	5.034	3351721	STUDY_PAIR	n/a	2	2	TOOTH	FLOOR	STONE	TOOTH	14	[0, 0, 0]	-999	PAL1	1	R1185N
3232.323	0.967	3356755	STUDY_ORIENT	n/a	3	5	JUICE	GLASS	SALT	JUICE	14	[0, 0, 0]	-999	PAL1	1	R1185N
3233.29	5.034	3357722	STUDY_PAIR	n/a	3	5	JUICE	GLASS	SALT	JUICE	14	[0, 0, 0]	-999	PAL1	1	R1185N
3238.324	1.0	3362756	STUDY_ORIENT	n/a	4	6	HOOF	n/a	HOOF	FLOOR	14	[0, 0, 0]	-999	PAL1	1	R1185N
3239.324	5.034	3363756	STUDY_PAIR	n/a	4	6	HOOF	n/a	HOOF	FLOOR	14	[0, 0, 0]	-999	PAL1	1	R1185N
3244.358	0.85	3368790	STUDY_ORIENT	n/a	5	1	STEAK	n/a	TANK	STEAK	14	[0, 0, 0]	-999	PAL1	1	R1185N
3245.208	5.018	3369640	STUDY_PAIR	n/a	5	1	STEAK	n/a	TANK	STEAK	14	[0, 0, 0]	-999	PAL1	1	R1185N
3250.226	1.017	3374657	STUDY_ORIENT	n/a	6	4	SQUARE	TANK	DOG	SQUARE	14	[0, 0, 0]	-999	PAL1	1	R1185N
3251.243	4.017	3375674	STUDY_PAIR	n/a	6	4	SQUARE	TANK	DOG	SQUARE	14	[0, 0, 0]	-999	PAL1	1	R1185N
3255.26	1.0	3379691	START	n/a	-999	-999	n/a	n/a	n/a	n/a	14	[-999, -999, -999]	-999	PAL1	1	R1185N
3256.26	0.017	3380691	MATH_START	n/a	-999	-999	n/a	n/a	n/a	n/a	14	[0, 0, 0]	-999	PAL1	1	R1185N
3256.277	10.252	3380708	PROB	10220	-999	-999	n/a	n/a	n/a	n/a	14	[8, 6, 6]	20	PAL1	1	R1185N
3266.529	4.45	3390960	PROB	4424	-999	-999	n/a	n/a	n/a	n/a	14	[7, 4, 1]	12	PAL1	1	R1185N
3270.979	3.935	3395410	PROB	3903	-999	-999	n/a	n/a	n/a	n/a	14	[8, 1, 3]	12	PAL1	1	R1185N
3274.914	5.423	3399344	PROB	5423	-999	-999	n/a	n/a	n/a	n/a	14	[4, 5, 2]	11	PAL1	1	R1185N
3280.337	0.011	3404767	STOP	n/a	-999	-999	n/a	n/a	n/a	n/a	14	[-999, -999, -999]	-999	PAL1	1	R1185N
3280.348	0.0	3404778	MATH_END	n/a	-999	-999	n/a	n/a	n/a	n/a	14	[0, 0, 0]	-999	PAL1	1	R1185N
3280.348	0.016	3404778	TEST_START	n/a	-999	-999	n/a	n/a	n/a	n/a	14	[0, 0, 0]	-999	PAL1	1	R1185N
3280.364	0.984	3404794	TEST_ORIENT	n/a	5	1	STEAK	n/a	TANK	STEAK	14	[0, 0, 0]	-999	PAL1	1	R1185N
3281.348	0.001	3405778	TEST_PROBE	n/a	5	1	STEAK	n/a	TANK	STEAK	14	[0, 0, 0]	-999	PAL1	1	R1185N
3281.349	5.021	3405779	REC_START	n/a	5	-999	n/a	n/a	n/a	n/a	14	[0, 0, 0]	-999	PAL1	1	R1185N
3286.37	0.004	3410800	REC_EVENT	5021	5	1	STEAK	<>	TANK	STEAK	14	[0, 0, 0]	-999	PAL1	1	R1185N
3286.374	0.008	3410804	REC_END	n/a	5	-999	n/a	n/a	n/a	n/a	14	[0, 0, 0]	-999	PAL1	1	R1185N
3286.382	0.917	3410812	TEST_ORIENT	n/a	2	2	TOOTH	FLOOR	STONE	TOOTH	14	[0, 0, 0]	-999	PAL1	1	R1185N
3287.299	0.0	3411729	REC_START	n/a	2	-999	n/a	FLOOR	n/a	n/a	14	[0, 0, 0]	-999	PAL1	1	R1185N
3287.299	2.86	3411729	TEST_PROBE	n/a	2	2	TOOTH	FLOOR	STONE	TOOTH	14	[0, 0, 0]	-999	PAL1	1	R1185N
3290.159	2.157	3414589	REC_EVENT	2860	2	2	TOOTH	FLOOR	STONE	TOOTH	14	[0, 0, 0]	-999	PAL1	1	R1185N
3292.316	0.017	3416746	REC_END	n/a	2	-999	n/a	n/a	n/a	n/a	14	[0, 0, 0]	-999	PAL1	1	R1185N
3292.333	0.817	3416763	TEST_ORIENT	n/a	1	3	CAT	DOOR	DOOR	CAT	14	[0, 0, 0]	-999	PAL1	1	R1185N
3293.15	0.0	3417580	TEST_PROBE	n/a	1	3	CAT	DOOR	DOOR	CAT	14	[0, 0, 0]	-999	PAL1	1	R1185N
3293.15	1.25	3417580	REC_START	n/a	1	-999	n/a	DOOR	n/a	n/a	14	[0, 0, 0]	-999	PAL1	1	R1185N
3294.4	3.767	3418830	REC_EVENT	1250	1	3	CAT	DOOR	DOOR	CAT	14	[0, 0, 0]	-999	PAL1	1	R1185N
3298.167	0.017	3422597	REC_END	n/a	1	-999	n/a	n/a	n/a	n/a	14	[0, 0, 0]	-999	PAL1	1	R1185N
3298.184	0.9	3422614	TEST_ORIENT	n/a	6	4	SQUARE	TANK	DOG	SQUARE	14	[0, 0, 0]	-999	PAL1	1	R1185N
3299.084	0.001	3423514	TEST_PROBE	n/a	6	4	SQUARE	TANK	DOG	SQUARE	14	[0, 0, 0]	-999	PAL1	1	R1185N
3299.085	3.193	3423515	REC_START	n/a	6	-999	n/a	TANK	n/a	n/a	14	[0, 0, 0]	-999	PAL1	1	R1185N
3302.278	1.816	3426707	REC_EVENT	3193	6	4	SQUARE	TANK	DOG	SQUARE	14	[0, 0, 0]	-999	PAL1	1	R1185N
3304.094	0.008	3428523	REC_END	n/a	6	-999	n/a	n/a	n/a	n/a	14	[0, 0, 0]	-999	PAL1	1	R1185N
3304.102	0.917	3428531	TEST_ORIENT	n/a	3	5	JUICE	GLASS	SALT	JUICE	14	[0, 0, 0]	-999	PAL1	1	R1185N
3305.019	0.0	3429448	TEST_PROBE	n/a	3	5	JUICE	GLASS	SALT	JUICE	14	[0, 0, 0]	-999	PAL1	1	R1185N
3305.019	4.125	3429448	REC_START	n/a	3	-999	n/a	GLASS	n/a	n/a	14	[0, 0, 0]	-999	PAL1	1	R1185N
3309.144	0.892	3433573	REC_EVENT	4125	3	5	JUICE	GLASS	SALT	JUICE	14	[0, 0, 0]	-999	PAL1	1	R1185N
3310.036	0.017	3434465	REC_END	n/a	3	-999	n/a	n/a	n/a	n/a	14	[0, 0, 0]	-999	PAL1	1	R1185N
3310.053	0.983	3434482	TEST_ORIENT	n/a	4	6	HOOF	n/a	HOOF	FLOOR	14	[0, 0, 0]	-999	PAL1	1	R1185N
3311.036	0.001	3435465	TEST_PROBE	n/a	4	6	HOOF	n/a	HOOF	FLOOR	14	[0, 0, 0]	-999	PAL1	1	R1185N
3311.037	5.009	3435466	REC_START	n/a	4	-999	n/a	n/a	n/a	n/a	14	[0, 0, 0]	-999	PAL1	1	R1185N
3316.046	0.001	3440475	REC_EVENT	5009	4	6	HOOF	<>	HOOF	FLOOR	14	[0, 0, 0]	-999	PAL1	1	R1185N
3316.047	63.386	3440476	REC_END	n/a	4	-999	n/a	n/a	n/a	n/a	14	[0, 0, 0]	-999	PAL1	1	R1185N
3379.433	10.451	3503860	ENCODING_START	n/a	0	-999	n/a	n/a	n/a	n/a	15	[0, 0, 0]	-999	PAL1	1	R1185N
3389.884	0.799	3514310	STUDY_ORIENT	n/a	1	3	LIP	n/a	LIP	FROG	15	[0, 0, 0]	-999	PAL1	1	R1185N
3390.683	5.034	3515109	STUDY_PAIR	n/a	1	3	LIP	n/a	LIP	FROG	15	[0, 0, 0]	-999	PAL1	1	R1185N
3395.717	0.783	3520143	STUDY_ORIENT	n/a	2	4	SKUNK	n/a	SKUNK	BOOK	15	[0, 0, 0]	-999	PAL1	1	R1185N
3396.5	5.018	3520926	STUDY_PAIR	n/a	2	4	SKUNK	n/a	SKUNK	BOOK	15	[0, 0, 0]	-999	PAL1	1	R1185N
3401.518	0.817	3525944	STUDY_ORIENT	n/a	3	5	LEG	ARM	ARM	LEG	15	[0, 0, 0]	-999	PAL1	1	R1185N
3402.335	5.034	3526761	STUDY_PAIR	n/a	3	5	LEG	ARM	ARM	LEG	15	[0, 0, 0]	-999	PAL1	1	R1185N
3407.369	0.934	3531795	STUDY_ORIENT	n/a	4	6	STOOL	n/a	STOOL	MOUTH	15	[0, 0, 0]	-999	PAL1	1	R1185N
3408.303	5.034	3532729	STUDY_PAIR	n/a	4	6	STOOL	n/a	STOOL	MOUTH	15	[0, 0, 0]	-999	PAL1	1	R1185N
3413.337	0.883	3537762	STUDY_ORIENT	n/a	5	1	STREET	YARD	YARD	STREET	15	[0, 0, 0]	-999	PAL1	1	R1185N
3414.22	5.018	3538645	STUDY_PAIR	n/a	5	1	STREET	YARD	YARD	STREET	15	[0, 0, 0]	-999	PAL1	1	R1185N
3419.238	0.8	3543663	STUDY_ORIENT	n/a	6	2	WEED	n/a	PET	WEED	15	[0, 0, 0]	-999	PAL1	1	R1185N
3420.038	4.018	3544463	STUDY_PAIR	n/a	6	2	WEED	n/a	PET	WEED	15	[0, 0, 0]	-999	PAL1	1	R1185N
3424.056	0.999	3548481	START	n/a	-999	-999	n/a	n/a	n/a	n/a	15	[-999, -999, -999]	-999	PAL1	1	R1185N
3425.055	0.017	3549480	MATH_START	n/a	-999	-999	n/a	n/a	n/a	n/a	15	[0, 0, 0]	-999	PAL1	1	R1185N
3425.072	8.168	3549497	PROB	8137	-999	-999	n/a	n/a	n/a	n/a	15	[9, 9, 1]	19	PAL1	1	R1185N
3433.24	11.961	3557665	PROB	11961	-999	-999	n/a	n/a	n/a	n/a	15	[4, 9, 7]	20	PAL1	1	R1185N
3445.201	0.008	3569625	STOP	n/a	-999	-999	n/a	n/a	n/a	n/a	15	[-999, -999, -999]	-999	PAL1	1	R1185N
3445.209	0.0	3569633	MATH_END	n/a	-999	-999	n/a	n/a	n/a	n/a	15	[0, 0, 0]	-999	PAL1	1	R1185N
3445.209	0.017	3569633	TEST_START	n/a	-999	-999	n/a	n/a	n/a	n/a	15	[0, 0, 0]	-999	PAL1	1	R1185N
3445.226	0.966	3569650	TEST_ORIENT	n/a	5	1	STREET	YARD	YARD	STREET	15	[0, 0, 0]	-999	PAL1	1	R1185N
3446.192	0.001	3570616	TEST_PROBE	n/a	5	1	STREET	YARD	YARD	STREET	15	[0, 0, 0]	-999	PAL1	1	R1185N
3446.193	3.104	3570617	REC_START	n/a	5	-999	n/a	YARD	n/a	n/a	15	[0, 0, 0]	-999	PAL1	1	R1185N
3449.297	1.905	3573721	REC_EVENT	3104	5	1	STREET	YARD	YARD	STREET	15	[0, 0, 0]	-999	PAL1	1	R1185N
3451.202	0.008	3575626	REC_END	n/a	5	-999	n/a	n/a	n/a	n/a	15	[0, 0, 0]	-999	PAL1	1	R1185N
3451.21	0.967	3575634	TEST_ORIENT	n/a	6	2	WEED	n/a	PET	WEED	15	[0, 0, 0]	-999	PAL1	1	R1185N
3452.177	0.0	3576601	TEST_PROBE	n/a	6	2	WEED	n/a	PET	WEED	15	[0, 0, 0]	-999	PAL1	1	R1185N
3452.177	5.015	3576601	REC_START	n/a	6	-999	n/a	n/a	n/a	n/a	15	[0, 0, 0]	-999	PAL1	1	R1185N
3457.192	0.002	3581616	REC_EVENT	5015	6	2	WEED	<>	PET	WEED	15	[0, 0, 0]	-999	PAL1	1	R1185N
3457.194	0.017	3581618	REC_END	n/a	6	-999	n/a	n/a	n/a	n/a	15	[0, 0, 0]	-999	PAL1	1	R1185N
3457.211	0.983	3581635	TEST_ORIENT	n/a	1	3	LIP	n/a	LIP	FROG	15	[0, 0, 0]	-999	PAL1	1	R1185N
3458.194	0.001	3582618	TEST_PROBE	n/a	1	3	LIP	n/a	LIP	FROG	15	[0, 0, 0]	-999	PAL1	1	R1185N
3458.195	5.009	3582619	REC_START	n/a	1	-999	n/a	n/a	n/a	n/a	15	[0, 0, 0]	-999	PAL1	1	R1185N
3463.204	0.0	3587628	REC_END	n/a	1	-999	n/a	n/a	n/a	n/a	15	[0, 0, 0]	-999	PAL1	1	R1185N
3463.204	0.008	3587628	REC_EVENT	5009	1	3	LIP	<>	LIP	FROG	15	[0, 0, 0]	-999	PAL1	1	R1185N
3463.212	1.017	3587636	TEST_ORIENT	n/a	2	4	SKUNK	n/a	SKUNK	BOOK	15	[0, 0, 0]	-999	PAL1	1	R1185N
3464.229	0.0	3588652	TEST_PROBE	n/a	2	4	SKUNK	n/a	SKUNK	BOOK	15	[0, 0, 0]	-999	PAL1	1	R1185N
3464.229	5.015	3588652	REC_START	n/a	2	-999	n/a	n/a	n/a	n/a	15	[0, 0, 0]	-999	PAL1	1	R1185N
3469.244	0.002	3593667	REC_EVENT	5015	2	4	SKUNK	<>	SKUNK	BOOK	15	[0, 0, 0]	-999	PAL1	1	R1185N
3469.246	0.017	3593669	REC_END	n/a	2	-999	n/a	n/a	n/a	n/a	15	[0, 0, 0]	-999	PAL1	1	R1185N
3469.263	1.033	3593686	TEST_ORIENT	n/a	3	5	LEG	ARM	ARM	LEG	15	[0, 0, 0]	-999	PAL1	1	R1185N
3470.296	0.001	3594719	TEST_PROBE	n/a	3	5	LEG	ARM	ARM	LEG	15	[0, 0, 0]	-999	PAL1	1	R1185N
3470.297	1.135	3594720	REC_START	n/a	3	-999	n/a	ARM	n/a	n/a	15	[0, 0, 0]	-999	PAL1	1	R1185N
3471.432	3.865	3595855	REC_EVENT	1135	3	5	LEG	ARM	ARM	LEG	15	[0, 0, 0]	-999	PAL1	1	R1185N
3475.297	0.017	3599720	REC_END	n/a	3	-999	n/a	n/a	n/a	n/a	15	[0, 0, 0]	-999	PAL1	1	R1185N
3475.314	0.833	3599737	TEST_ORIENT	n/a	4	6	STOOL	n/a	STOOL	MOUTH	15	[0, 0, 0]	-999	PAL1	1	R1185N
3476.147	0.001	3600570	TEST_PROBE	n/a	4	6	STOOL	n/a	STOOL	MOUTH	15	[0, 0, 0]	-999	PAL1	1	R1185N
3476.148	5.009	3600571	REC_START	n/a	4	-999	n/a	n/a	n/a	n/a	15	[0, 0, 0]	-999	PAL1	1	R1185N
3481.157	0.0	3605580	REC_EVENT	5009	4	6	STOOL	<>	STOOL	MOUTH	15	[0, 0, 0]	-999	PAL1	1	R1185N
3481.157	296.508	3605580	REC_END	n/a	4	-999	n/a	n/a	n/a	n/a	15	[0, 0, 0]	-999	PAL1	1	R1185N
3777.665	10.452	3902077	ENCODING_START	n/a	0	-999	n/a	n/a	n/a	n/a	16	[0, 0, 0]	-999	PAL1	1	R1185N
3788.117	0.85	3912529	STUDY_ORIENT	n/a	1	3	SLEEVE	n/a	SLEEVE	HAND	16	[0, 0, 0]	-999	PAL1	1	R1185N
3788.967	5.034	3913379	STUDY_PAIR	n/a	1	3	SLEEVE	n/a	SLEEVE	HAND	16	[0, 0, 0]	-999	PAL1	1	R1185N
3794.001	0.8	3918412	STUDY_ORIENT	n/a	2	6	MUG	n/a	MUG	PLANT	16	[0, 0, 0]	-999	PAL1	1	R1185N
3794.801	5.018	3919212	STUDY_PAIR	n/a	2	6	MUG	n/a	MUG	PLANT	16	[0, 0, 0]	-999	PAL1	1	R1185N
3799.819	0.85	3924230	STUDY_ORIENT	n/a	3	1	WOOD	AXE	WOOD	WHEEL	16	[0, 0, 0]	-999	PAL1	1	R1185N
3800.669	5.034	3925080	STUDY_PAIR	n/a	3	1	WOOD	AXE	WOOD	WHEEL	16	[0, 0, 0]	-999	PAL1	1	R1185N
3805.703	0.834	3930114	STUDY_ORIENT	n/a	4	2	SHIRT	n/a	SHIRT	CUP	16	[0, 0, 0]	-999	PAL1	1	R1185N
3806.537	5.034	3930948	STUDY_PAIR	n/a	4	2	SHIRT	n/a	SHIRT	CUP	16	[0, 0, 0]	-999	PAL1	1	R1185N
3811.571	0.783	3935982	STUDY_ORIENT	n/a	5	5	TOY	n/a	TOY	RUG	16	[0, 0, 0]	-999	PAL1	1	R1185N
3812.354	5.018	3936765	STUDY_PAIR	n/a	5	5	TOY	n/a	TOY	RUG	16	[0, 0, 0]	-999	PAL1	1	R1185N
3817.372	0.85	3941783	STUDY_ORIENT	n/a	6	4	WORLD	n/a	WORLD	AXE	16	[0, 0, 0]	-999	PAL1	1	R1185N
3818.222	4.018	3942633	STUDY_PAIR	n/a	6	4	WORLD	n/a	WORLD	AXE	16	[0, 0, 0]	-999	PAL1	1	R1185N
3822.24	0.999	3946650	START	n/a	-999	-999	n/a	n/a	n/a	n/a	16	[-999, -999, -999]	-999	PAL1	1	R1185N
3823.239	0.017	3947649	MATH_START	n/a	-999	-999	n/a	n/a	n/a	n/a	16	[0, 0, 0]	-999	PAL1	1	R1185N
3823.256	17.52	3947666	PROB	17489	-999	-999	n/a	n/a	n/a	n/a	16	[8, 3, 3]	14	PAL1	1	R1185N
3840.776	8.313	3965186	PROB	8313	-999	-999	n/a	n/a	n/a	n/a	16	[5, 3, 8]	16	PAL1	1	R1185N
3849.089	0.005	3973498	STOP	n/a	-999	-999	n/a	n/a	n/a	n/a	16	[-999, -999, -999]	-999	PAL1	1	R1185N
3849.094	0.0	3973503	MATH_END	n/a	-999	-999	n/a	n/a	n/a	n/a	16	[0, 0, 0]	-999	PAL1	1	R1185N
3849.094	0.016	3973503	TEST_START	n/a	-999	-999	n/a	n/a	n/a	n/a	16	[0, 0, 0]	-999	PAL1	1	R1185N
3849.11	0.951	3973519	TEST_ORIENT	n/a	3	1	WOOD	AXE	WOOD	WHEEL	16	[0, 0, 0]	-999	PAL1	1	R1185N
3850.061	0.0	3974470	TEST_PROBE	n/a	3	1	WOOD	AXE	WOOD	WHEEL	16	[0, 0, 0]	-999	PAL1	1	R1185N
3850.061	1.454	3974470	REC_START	n/a	3	-999	n/a	AXE	n/a	n/a	16	[0, 0, 0]	-999	PAL1	1	R1185N
3851.515	3.563	3975924	REC_EVENT	1454	3	1	WOOD	AXE	WOOD	WHEEL	16	[0, 0, 0]	-999	PAL1	1	R1185N
3855.078	0.017	3979487	REC_END	n/a	3	-999	n/a	n/a	n/a	n/a	16	[0, 0, 0]	-999	PAL1	1	R1185N
3855.095	0.917	3979504	TEST_ORIENT	n/a	4	2	SHIRT	n/a	SHIRT	CUP	16	[0, 0, 0]	-999	PAL1	1	R1185N
3856.012	0.0	3980421	TEST_PROBE	n/a	4	2	SHIRT	n/a	SHIRT	CUP	16	[0, 0, 0]	-999	PAL1	1	R1185N
3856.012	5.017	3980421	REC_START	n/a	4	-999	n/a	n/a	n/a	n/a	16	[0, 0, 0]	-999	PAL1	1	R1185N
3861.029	0.004	3985438	REC_END	n/a	4	-999	n/a	n/a	n/a	n/a	16	[0, 0, 0]	-999	PAL1	1	R1185N
3861.033	0.013	3985442	REC_EVENT	5021	4	2	SHIRT	<>	SHIRT	CUP	16	[0, 0, 0]	-999	PAL1	1	R1185N
3861.046	0.983	3985455	TEST_ORIENT	n/a	1	3	SLEEVE	n/a	SLEEVE	HAND	16	[0, 0, 0]	-999	PAL1	1	R1185N
3862.029	0.001	3986438	TEST_PROBE	n/a	1	3	SLEEVE	n/a	SLEEVE	HAND	16	[0, 0, 0]	-999	PAL1	1	R1185N
3862.03	3.626	3986439	REC_START	n/a	1	-999	n/a	n/a	n/a	n/a	16	[0, 0, 0]	-999	PAL1	1	R1185N
3865.656	1.374	3990065	REC_EVENT	3626	1	3	SLEEVE	<>	SLEEVE	HAND	16	[0, 0, 0]	-999	PAL1	1	R1185N
3867.03	0.017	3991439	REC_END	n/a	1	-999	n/a	n/a	n/a	n/a	16	[0, 0, 0]	-999	PAL1	1	R1185N
3867.047	0.8	3991456	TEST_ORIENT	n/a	6	4	WORLD	n/a	WORLD	AXE	16	[0, 0, 0]	-999	PAL1	1	R1185N
3867.847	0.0	3992256	TEST_PROBE	n/a	6	4	WORLD	n/a	WORLD	AXE	16	[0, 0, 0]	-999	PAL1	1	R1185N
3867.847	5.015	3992256	REC_START	n/a	6	-999	n/a	n/a	n/a	n/a	16	[0, 0, 0]	-999	PAL1	1	R1185N
3872.862	0.002	3997271	REC_EVENT	5015	6	4	WORLD	<>	WORLD	AXE	16	[0, 0, 0]	-999	PAL1	1	R1185N
3872.864	0.018	3997273	REC_END	n/a	6	-999	n/a	n/a	n/a	n/a	16	[0, 0, 0]	-999	PAL1	1	R1185N
3872.882	0.933	3997291	TEST_ORIENT	n/a	5	5	TOY	n/a	TOY	RUG	16	[0, 0, 0]	-999	PAL1	1	R1185N
3873.815	0.0	3998224	REC_START	n/a	5	-999	n/a	n/a	n/a	n/a	16	[0, 0, 0]	-999	PAL1	1	R1185N
3873.815	5.015	3998224	TEST_PROBE	n/a	5	5	TOY	n/a	TOY	RUG	16	[0, 0, 0]	-999	PAL1	1	R1185N
3878.83	0.002	4003238	REC_EVENT	5015	5	5	TOY	<>	TOY	RUG	16	[0, 0, 0]	-999	PAL1	1	R1185N
3878.832	0.017	4003240	REC_END	n/a	5	-999	n/a	n/a	n/a	n/a	16	[0, 0, 0]	-999	PAL1	1	R1185N
3878.849	0.833	4003257	TEST_ORIENT	n/a	2	6	MUG	n/a	MUG	PLANT	16	[0, 0, 0]	-999	PAL1	1	R1185N
3879.682	0.001	4004090	TEST_PROBE	n/a	2	6	MUG	n/a	MUG	PLANT	16	[0, 0, 0]	-999	PAL1	1	R1185N
3879.683	5.009	4004091	REC_START	n/a	2	-999	n/a	n/a	n/a	n/a	16	[0, 0, 0]	-999	PAL1	1	R1185N
3884.692	0.0	4009100	REC_END	n/a	2	-999	n/a	n/a	n/a	n/a	16	[0, 0, 0]	-999	PAL1	1	R1185N
3884.692	10.325	4009100	REC_EVENT	5009	2	6	MUG	<>	MUG	PLANT	16	[0, 0, 0]	-999	PAL1	1	R1185N
3895.017	10.453	4019425	ENCODING_START	n/a	0	-999	n/a	n/a	n/a	n/a	17	[0, 0, 0]	-999	PAL1	1	R1185N
3905.47	1.017	4029877	STUDY_ORIENT	n/a	1	1	PRINCE	n/a	PRINCE	BREAD	17	[0, 0, 0]	-999	PAL1	1	R1185N
3906.487	5.034	4030894	STUDY_PAIR	n/a	1	1	PRINCE	n/a	PRINCE	BREAD	17	[0, 0, 0]	-999	PAL1	1	R1185N
3911.521	0.867	4035928	STUDY_ORIENT	n/a	2	6	SHIP	n/a	WAVE	SHIP	17	[0, 0, 0]	-999	PAL1	1	R1185N
3912.388	5.034	4036795	STUDY_PAIR	n/a	2	6	SHIP	n/a	WAVE	SHIP	17	[0, 0, 0]	-999	PAL1	1	R1185N
3917.422	0.884	4041829	STUDY_ORIENT	n/a	3	3	FLUTE	n/a	FLUTE	SPEAR	17	[0, 0, 0]	-999	PAL1	1	R1185N
3918.306	5.034	4042713	STUDY_PAIR	n/a	3	3	FLUTE	n/a	FLUTE	SPEAR	17	[0, 0, 0]	-999	PAL1	1	R1185N
3923.34	0.833	4047747	STUDY_ORIENT	n/a	4	2	SHIELD	n/a	HAWK	SHIELD	17	[0, 0, 0]	-999	PAL1	1	R1185N
3924.173	5.018	4048580	STUDY_PAIR	n/a	4	2	SHIELD	n/a	HAWK	SHIELD	17	[0, 0, 0]	-999	PAL1	1	R1185N
3929.191	0.883	4053597	STUDY_ORIENT	n/a	5	5	NEST	n/a	BOAT	NEST	17	[0, 0, 0]	-999	PAL1	1	R1185N
3930.074	5.018	4054480	STUDY_PAIR	n/a	5	5	NEST	n/a	BOAT	NEST	17	[0, 0, 0]	-999	PAL1	1	R1185N
3935.092	0.933	4059498	STUDY_ORIENT	n/a	6	4	HILL	n/a	BEAK	HILL	17	[0, 0, 0]	-999	PAL1	1	R1185N
3936.025	4.001	4060431	STUDY_PAIR	n/a	6	4	HILL	n/a	BEAK	HILL	17	[0, 0, 0]	-999	PAL1	1	R1185N
3940.026	1.0	4064432	START	n/a	-999	-999	n/a	n/a	n/a	n/a	17	[-999, -999, -999]	-999	PAL1	1	R1185N
3941.026	0.017	4065432	MATH_START	n/a	-999	-999	n/a	n/a	n/a	n/a	17	[0, 0, 0]	-999	PAL1	1	R1185N
3941.043	9.351	4065449	PROB	9318	-999	-999	n/a	n/a	n/a	n/a	17	[7, 1, 4]	12	PAL1	1	R1185N
3950.394	3.334	4074800	PROB	3303	-999	-999	n/a	n/a	n/a	n/a	17	[1, 1, 9]	11	PAL1	1	R1185N
3953.728	6.101	4078134	PROB	6073	-999	-999	n/a	n/a	n/a	n/a	17	[6, 5, 3]	11	PAL1	1	R1185N
3959.829	15.9	4084234	PROB	15900	-999	-999	n/a	n/a	n/a	n/a	17	[9, 5, 7]	19	PAL1	1	R1185N
3975.729	0.003	4100134	STOP	n/a	-999	-999	n/a	n/a	n/a	n/a	17	[-999, -999, -999]	-999	PAL1	1	R1185N
3975.732	0.0	4100137	MATH_END	n/a	-999	-999	n/a	n/a	n/a	n/a	17	[0, 0, 0]	-999	PAL1	1	R1185N
3975.732	0.017	4100137	TEST_START	n/a	-999	-999	n/a	n/a	n/a	n/a	17	[0, 0, 0]	-999	PAL1	1	R1185N
3975.749	0.866	4100154	TEST_ORIENT	n/a	1	1	PRINCE	n/a	PRINCE	BREAD	17	[0, 0, 0]	-999	PAL1	1	R1185N
3976.615	0.001	4101020	TEST_PROBE	n/a	1	1	PRINCE	n/a	PRINCE	BREAD	17	[0, 0, 0]	-999	PAL1	1	R1185N
3976.616	5.009	4101021	REC_START	n/a	1	-999	n/a	n/a	n/a	n/a	17	[0, 0, 0]	-999	PAL1	1	R1185N
3981.625	0.0	4106030	REC_END	n/a	1	-999	n/a	n/a	n/a	n/a	17	[0, 0, 0]	-999	PAL1	1	R1185N
3981.625	0.008	4106030	REC_EVENT	5009	1	1	PRINCE	<>	PRINCE	BREAD	17	[0, 0, 0]	-999	PAL1	1	R1185N
3981.633	0.9	4106038	TEST_ORIENT	n/a	4	2	SHIELD	n/a	HAWK	SHIELD	17	[0, 0, 0]	-999	PAL1	1	R1185N
3982.533	0.0	4106938	TEST_PROBE	n/a	4	2	SHIELD	n/a	HAWK	SHIELD	17	[0, 0, 0]	-999	PAL1	1	R1185N
3982.533	5.015	4106938	REC_START	n/a	4	-999	n/a	n/a	n/a	n/a	17	[0, 0, 0]	-999	PAL1	1	R1185N
3987.548	0.002	4111952	REC_EVENT	5015	4	2	SHIELD	<>	HAWK	SHIELD	17	[0, 0, 0]	-999	PAL1	1	R1185N
3987.55	0.017	4111954	REC_END	n/a	4	-999	n/a	n/a	n/a	n/a	17	[0, 0, 0]	-999	PAL1	1	R1185N
3987.567	0.867	4111971	TEST_ORIENT	n/a	3	3	FLUTE	n/a	FLUTE	SPEAR	17	[0, 0, 0]	-999	PAL1	1	R1185N
3988.434	0.0	4112838	TEST_PROBE	n/a	3	3	FLUTE	n/a	FLUTE	SPEAR	17	[0, 0, 0]	-999	PAL1	1	R1185N
3988.434	5.015	4112838	REC_START	n/a	3	-999	n/a	n/a	n/a	n/a	17	[0, 0, 0]	-999	PAL1	1	R1185N
3993.449	0.002	4117853	REC_EVENT	5015	3	3	FLUTE	<>	FLUTE	SPEAR	17	[0, 0, 0]	-999	PAL1	1	R1185N
3993.451	0.017	4117855	REC_END	n/a	3	-999	n/a	n/a	n/a	n/a	17	[0, 0, 0]	-999	PAL1	1	R1185N
3993.468	0.867	4117872	TEST_ORIENT	n/a	6	4	HILL	n/a	BEAK	HILL	17	[0, 0, 0]	-999	PAL1	1	R1185N
3994.335	0.001	4118739	TEST_PROBE	n/a	6	4	HILL	n/a	BEAK	HILL	17	[0, 0, 0]	-999	PAL1	1	R1185N
3994.336	5.026	4118740	REC_START	n/a	6	-999	n/a	n/a	n/a	n/a	17	[0, 0, 0]	-999	PAL1	1	R1185N
3999.362	0.001	4123766	REC_END	n/a	6	-999	n/a	n/a	n/a	n/a	17	[0, 0, 0]	-999	PAL1	1	R1185N
3999.363	0.006	4123767	REC_EVENT	5027	6	4	HILL	<>	BEAK	HILL	17	[0, 0, 0]	-999	PAL1	1	R1185N
3999.369	0.8	4123773	TEST_ORIENT	n/a	5	5	NEST	n/a	BOAT	NEST	17	[0, 0, 0]	-999	PAL1	1	R1185N
4000.169	0.001	4124573	TEST_PROBE	n/a	5	5	NEST	n/a	BOAT	NEST	17	[0, 0, 0]	-999	PAL1	1	R1185N
4000.17	5.009	4124574	REC_START	n/a	5	-999	n/a	n/a	n/a	n/a	17	[0, 0, 0]	-999	PAL1	1	R1185N
4005.179	0.0	4129583	REC_EVENT	5009	5	5	NEST	<>	BOAT	NEST	17	[0, 0, 0]	-999	PAL1	1	R1185N
4005.179	0.008	4129583	REC_END	n/a	5	-999	n/a	n/a	n/a	n/a	17	[0, 0, 0]	-999	PAL1	1	R1185N
4005.187	0.833	4129591	TEST_ORIENT	n/a	2	6	SHIP	n/a	WAVE	SHIP	17	[0, 0, 0]	-999	PAL1	1	R1185N
4006.02	0.001	4130424	TEST_PROBE	n/a	2	6	SHIP	n/a	WAVE	SHIP	17	[0, 0, 0]	-999	PAL1	1	R1185N
4006.021	5.009	4130425	REC_START	n/a	2	-999	n/a	n/a	n/a	n/a	17	[0, 0, 0]	-999	PAL1	1	R1185N
4011.03	0.0	4135434	REC_EVENT	5009	2	6	SHIP	<>	WAVE	SHIP	17	[0, 0, 0]	-999	PAL1	1	R1185N
4011.03	54.443	4135434	REC_END	n/a	2	-999	n/a	n/a	n/a	n/a	17	[0, 0, 0]	-999	PAL1	1	R1185N
4065.473	10.444	4189875	ENCODING_START	n/a	0	-999	n/a	n/a	n/a	n/a	18	[0, 0, 0]	-999	PAL1	1	R1185N
4075.917	0.882	4200318	STUDY_ORIENT	n/a	1	5	BUSH	MOON	BUSH	MOON	18	[0, 0, 0]	-999	PAL1	1	R1185N
4076.799	5.034	4201200	STUDY_PAIR	n/a	1	5	BUSH	MOON	BUSH	MOON	18	[0, 0, 0]	-999	PAL1	1	R1185N
4081.833	0.784	4206234	STUDY_ORIENT	n/a	2	2	CART	WOLF	CART	HOLE	18	[0, 0, 0]	-999	PAL1	1	R1185N
4082.617	5.034	4207018	STUDY_PAIR	n/a	2	2	CART	WOLF	CART	HOLE	18	[0, 0, 0]	-999	PAL1	1	R1185N
4087.651	0.783	4212052	STUDY_ORIENT	n/a	3	1	TRAIN	TRAIN	TRAIN	JEEP	18	[0, 0, 0]	-999	PAL1	1	R1185N
4088.434	5.018	4212835	STUDY_PAIR	n/a	3	1	TRAIN	TRAIN	TRAIN	JEEP	18	[0, 0, 0]	-999	PAL1	1	R1185N
4093.452	0.833	4217852	STUDY_ORIENT	n/a	4	4	LAKE	LAMP	LAMP	LAKE	18	[0, 0, 0]	-999	PAL1	1	R1185N
4094.285	5.018	4218685	STUDY_PAIR	n/a	4	4	LAKE	LAMP	LAMP	LAKE	18	[0, 0, 0]	-999	PAL1	1	R1185N
4099.303	0.817	4223703	STUDY_ORIENT	n/a	5	3	STEM	STEM	STEM	ROAD	18	[0, 0, 0]	-999	PAL1	1	R1185N
4100.12	5.034	4224520	STUDY_PAIR	n/a	5	3	STEM	STEM	STEM	ROAD	18	[0, 0, 0]	-999	PAL1	1	R1185N
4105.154	0.983	4229554	STUDY_ORIENT	n/a	6	6	DRUM	WOLF	DRUM	WOLF	18	[0, 0, 0]	-999	PAL1	1	R1185N
4106.137	4.001	4230537	STUDY_PAIR	n/a	6	6	DRUM	WOLF	DRUM	WOLF	18	[0, 0, 0]	-999	PAL1	1	R1185N
4110.138	1.0	4234538	START	n/a	-999	-999	n/a	n/a	n/a	n/a	18	[-999, -999, -999]	-999	PAL1	1	R1185N
4111.138	0.017	4235538	MATH_START	n/a	-999	-999	n/a	n/a	n/a	n/a	18	[0, 0, 0]	-999	PAL1	1	R1185N
4111.155	4.217	4235555	PROB	4198	-999	-999	n/a	n/a	n/a	n/a	18	[7, 2, 8]	17	PAL1	1	R1185N
4115.372	7.268	4239772	PROB	7245	-999	-999	n/a	n/a	n/a	n/a	18	[4, 2, 6]	12	PAL1	1	R1185N
4122.64	2.584	4247039	PROB	2561	-999	-999	n/a	n/a	n/a	n/a	18	[2, 7, 2]	11	PAL1	1	R1185N
4125.224	6.177	4249623	PROB	6177	-999	-999	n/a	n/a	n/a	n/a	18	[5, 3, 3]	11	PAL1	1	R1185N
4131.401	0.007	4255800	STOP	n/a	-999	-999	n/a	n/a	n/a	n/a	18	[-999, -999, -999]	-999	PAL1	1	R1185N
4131.408	0.0	4255807	MATH_END	n/a	-999	-999	n/a	n/a	n/a	n/a	18	[0, 0, 0]	-999	PAL1	1	R1185N
4131.408	0.017	4255807	TEST_START	n/a	-999	-999	n/a	n/a	n/a	n/a	18	[0, 0, 0]	-999	PAL1	1	R1185N
4131.425	0.933	4255824	TEST_ORIENT	n/a	3	1	TRAIN	TRAIN	TRAIN	JEEP	18	[0, 0, 0]	-999	PAL1	1	R1185N
4132.358	0.001	4256757	TEST_PROBE	n/a	3	1	TRAIN	TRAIN	TRAIN	JEEP	18	[0, 0, 0]	-999	PAL1	1	R1185N
4132.359	3.195	4256758	REC_START	n/a	3	-999	n/a	TRAIN	n/a	n/a	18	[0, 0, 0]	-999	PAL1	1	R1185N
4135.554	1.814	4259953	REC_EVENT	3195	3	1	TRAIN	TRAIN	TRAIN	JEEP	18	[0, 0, 0]	-999	PAL1	1	R1185N
4137.368	0.008	4261767	REC_END	n/a	3	-999	n/a	n/a	n/a	n/a	18	[0, 0, 0]	-999	PAL1	1	R1185N
4137.376	0.933	4261775	TEST_ORIENT	n/a	2	2	CART	WOLF	CART	HOLE	18	[0, 0, 0]	-999	PAL1	1	R1185N
4138.309	0.001	4262708	TEST_PROBE	n/a	2	2	CART	WOLF	CART	HOLE	18	[0, 0, 0]	-999	PAL1	1	R1185N
4138.31	3.36	4262709	REC_START	n/a	2	-999	n/a	WOLF	n/a	n/a	18	[0, 0, 0]	-999	PAL1	1	R1185N
4141.67	1.64	4266069	REC_EVENT	3360	2	2	CART	WOLF	CART	HOLE	18	[0, 0, 0]	-999	PAL1	1	R1185N
4143.31	0.017	4267709	REC_END	n/a	2	-999	n/a	n/a	n/a	n/a	18	[0, 0, 0]	-999	PAL1	1	R1185N
4143.327	0.883	4267726	TEST_ORIENT	n/a	5	3	STEM	STEM	STEM	ROAD	18	[0, 0, 0]	-999	PAL1	1	R1185N
4144.21	0.001	4268609	TEST_PROBE	n/a	5	3	STEM	STEM	STEM	ROAD	18	[0, 0, 0]	-999	PAL1	1	R1185N
4144.211	1.515	4268610	REC_START	n/a	5	-999	n/a	STEM	n/a	n/a	18	[0, 0, 0]	-999	PAL1	1	R1185N
4145.726	3.494	4270125	REC_EVENT	1515	5	3	STEM	STEM	STEM	ROAD	18	[0, 0, 0]	-999	PAL1	1	R1185N
4149.22	0.008	4273618	REC_END	n/a	5	-999	n/a	n/a	n/a	n/a	18	[0, 0, 0]	-999	PAL1	1	R1185N
4149.228	0.85	4273626	TEST_ORIENT	n/a	4	4	LAKE	LAMP	LAMP	LAKE	18	[0, 0, 0]	-999	PAL1	1	R1185N
4150.078	0.0	4274476	TEST_PROBE	n/a	4	4	LAKE	LAMP	LAMP	LAKE	18	[0, 0, 0]	-999	PAL1	1	R1185N
4150.078	1.384	4274476	REC_START	n/a	4	-999	n/a	LAMP	n/a	n/a	18	[0, 0, 0]	-999	PAL1	1	R1185N
4151.462	3.633	4275860	REC_EVENT	1384	4	4	LAKE	LAMP	LAMP	LAKE	18	[0, 0, 0]	-999	PAL1	1	R1185N
4155.095	0.017	4279493	REC_END	n/a	4	-999	n/a	n/a	n/a	n/a	18	[0, 0, 0]	-999	PAL1	1	R1185N
4155.112	0.967	4279510	TEST_ORIENT	n/a	1	5	BUSH	MOON	BUSH	MOON	18	[0, 0, 0]	-999	PAL1	1	R1185N
4156.079	0.001	4280477	TEST_PROBE	n/a	1	5	BUSH	MOON	BUSH	MOON	18	[0, 0, 0]	-999	PAL1	1	R1185N
4156.08	1.14	4280478	REC_START	n/a	1	-999	n/a	MOON	n/a	n/a	18	[0, 0, 0]	-999	PAL1	1	R1185N
4157.22	3.876	4281618	REC_EVENT	1140	1	5	BUSH	MOON	BUSH	MOON	18	[0, 0, 0]	-999	PAL1	1	R1185N
4161.096	0.017	4285494	REC_END	n/a	1	-999	n/a	n/a	n/a	n/a	18	[0, 0, 0]	-999	PAL1	1	R1185N
4161.113	1.017	4285511	TEST_ORIENT	n/a	6	6	DRUM	WOLF	DRUM	WOLF	18	[0, 0, 0]	-999	PAL1	1	R1185N
4162.13	0.001	4286528	TEST_PROBE	n/a	6	6	DRUM	WOLF	DRUM	WOLF	18	[0, 0, 0]	-999	PAL1	1	R1185N
4162.131	2.888	4286529	REC_START	n/a	6	-999	n/a	WOLF	n/a	n/a	18	[0, 0, 0]	-999	PAL1	1	R1185N
4165.019	0.704	4289417	REC_EVENT	2888	6	6	DRUM	<>	DRUM	WOLF	18	[0, 0, 0]	-999	PAL1	1	R1185N
4165.723	0.538	4290121	REC_EVENT	3592	6	6	DRUM	<>	DRUM	WOLF	18	[0, 0, 0]	-999	PAL1	1	R1185N
4166.261	0.886	4290659	REC_EVENT	4130	6	6	DRUM	WOLF	DRUM	WOLF	18	[0, 0, 0]	-999	PAL1	1	R1185N
4167.147	4.958	4291545	REC_END	n/a	6	-999	n/a	n/a	n/a	n/a	18	[0, 0, 0]	-999	PAL1	1	R1185N
4172.105	10.445	4296503	ENCODING_START	n/a	0	-999	n/a	n/a	n/a	n/a	19	[0, 0, 0]	-999	PAL1	1	R1185N
4182.55	0.95	4306947	STUDY_ORIENT	n/a	1	3	BATH	SUN	BATH	SUN	19	[0, 0, 0]	-999	PAL1	1	R1185N
4183.5	5.018	4307897	STUDY_PAIR	n/a	1	3	BATH	SUN	BATH	SUN	19	[0, 0, 0]	-999	PAL1	1	R1185N
4188.518	0.8	4312915	STUDY_ORIENT	n/a	2	2	OAK	TREE	FOG	OAK	19	[0, 0, 0]	-999	PAL1	1	R1185N
4189.318	5.034	4313715	STUDY_PAIR	n/a	2	2	OAK	TREE	FOG	OAK	19	[0, 0, 0]	-999	PAL1	1	R1185N
4194.352	0.85	4318749	STUDY_ORIENT	n/a	3	5	ROOF	CANE	CANE	ROOF	19	[0, 0, 0]	-999	PAL1	1	R1185N
4195.202	5.018	4319599	STUDY_PAIR	n/a	3	5	ROOF	CANE	CANE	ROOF	19	[0, 0, 0]	-999	PAL1	1	R1185N
4200.22	1.017	4324617	STUDY_ORIENT	n/a	4	6	FILM	TRUCK	TRUCK	FILM	19	[0, 0, 0]	-999	PAL1	1	R1185N
4201.237	5.034	4325634	STUDY_PAIR	n/a	4	6	FILM	TRUCK	TRUCK	FILM	19	[0, 0, 0]	-999	PAL1	1	R1185N
4206.271	0.983	4330667	STUDY_ORIENT	n/a	5	1	SKI	LAWN	LAWN	SKI	19	[0, 0, 0]	-999	PAL1	1	R1185N
4207.254	5.018	4331650	STUDY_PAIR	n/a	5	1	SKI	LAWN	LAWN	SKI	19	[0, 0, 0]	-999	PAL1	1	R1185N
4212.272	1.017	4336668	STUDY_ORIENT	n/a	6	4	LAMB	BADGE	BADGE	LAMB	19	[0, 0, 0]	-999	PAL1	1	R1185N
4213.289	4.018	4337685	STUDY_PAIR	n/a	6	4	LAMB	BADGE	BADGE	LAMB	19	[0, 0, 0]	-999	PAL1	1	R1185N
4217.307	0.999	4341703	START	n/a	-999	-999	n/a	n/a	n/a	n/a	19	[-999, -999, -999]	-999	PAL1	1	R1185N
4218.306	0.017	4342702	MATH_START	n/a	-999	-999	n/a	n/a	n/a	n/a	19	[0, 0, 0]	-999	PAL1	1	R1185N
4218.323	3.602	4342719	PROB	3567	-999	-999	n/a	n/a	n/a	n/a	19	[1, 6, 6]	13	PAL1	1	R1185N
4221.925	4.049	4346321	PROB	4028	-999	-999	n/a	n/a	n/a	n/a	19	[8, 8, 1]	19	PAL1	1	R1185N
4225.974	19.451	4350370	PROB	19451	-999	-999	n/a	n/a	n/a	n/a	19	[9, 7, 6]	22	PAL1	1	R1185N
4245.425	0.002	4369820	STOP	n/a	-999	-999	n/a	n/a	n/a	n/a	19	[-999, -999, -999]	-999	PAL1	1	R1185N
4245.427	0.0	4369822	TEST_START	n/a	-999	-999	n/a	n/a	n/a	n/a	19	[0, 0, 0]	-999	PAL1	1	R1185N
4245.427	0.017	4369822	MATH_END	n/a	-999	-999	n/a	n/a	n/a	n/a	19	[0, 0, 0]	-999	PAL1	1	R1185N
4245.444	0.95	4369839	TEST_ORIENT	n/a	5	1	SKI	LAWN	LAWN	SKI	19	[0, 0, 0]	-999	PAL1	1	R1185N
4246.394	0.002	4370789	TEST_PROBE	n/a	5	1	SKI	LAWN	LAWN	SKI	19	[0, 0, 0]	-999	PAL1	1	R1185N
4246.396	3.62	4370791	REC_START	n/a	5	-999	n/a	LAWN	n/a	n/a	19	[0, 0, 0]	-999	PAL1	1	R1185N
4250.016	1.379	4374411	REC_EVENT	3620	5	1	SKI	LAWN	LAWN	SKI	19	[0, 0, 0]	-999	PAL1	1	R1185N
4251.395	0.017	4375790	REC_END	n/a	5	-999	n/a	n/a	n/a	n/a	19	[0, 0, 0]	-999	PAL1	1	R1185N
4251.412	0.817	4375807	TEST_ORIENT	n/a	2	2	OAK	TREE	FOG	OAK	19	[0, 0, 0]	-999	PAL1	1	R1185N
4252.229	0.0	4376624	REC_START	n/a	2	-999	n/a	TREE	n/a	n/a	19	[0, 0, 0]	-999	PAL1	1	R1185N
4252.229	3.452	4376624	TEST_PROBE	n/a	2	2	OAK	TREE	FOG	OAK	19	[0, 0, 0]	-999	PAL1	1	R1185N
4255.681	1.565	4380076	REC_EVENT	3452	2	2	OAK	TREE	FOG	OAK	19	[0, 0, 0]	-999	PAL1	1	R1185N
4257.246	0.017	4381641	REC_END	n/a	2	-999	n/a	n/a	n/a	n/a	19	[0, 0, 0]	-999	PAL1	1	R1185N
4257.263	1.017	4381658	TEST_ORIENT	n/a	1	3	BATH	SUN	BATH	SUN	19	[0, 0, 0]	-999	PAL1	1	R1185N
4258.28	0.0	4382674	TEST_PROBE	n/a	1	3	BATH	SUN	BATH	SUN	19	[0, 0, 0]	-999	PAL1	1	R1185N
4258.28	0.933	4382674	REC_START	n/a	1	-999	n/a	SUN	n/a	n/a	19	[0, 0, 0]	-999	PAL1	1	R1185N
4259.213	4.084	4383607	REC_EVENT	933	1	3	BATH	SUN	BATH	SUN	19	[0, 0, 0]	-999	PAL1	1	R1185N
4263.297	0.017	4387691	REC_END	n/a	1	-999	n/a	n/a	n/a	n/a	19	[0, 0, 0]	-999	PAL1	1	R1185N
4263.314	0.8	4387708	TEST_ORIENT	n/a	6	4	LAMB	BADGE	BADGE	LAMB	19	[0, 0, 0]	-999	PAL1	1	R1185N
4264.114	0.001	4388508	TEST_PROBE	n/a	6	4	LAMB	BADGE	BADGE	LAMB	19	[0, 0, 0]	-999	PAL1	1	R1185N
4264.115	2.146	4388509	REC_START	n/a	6	-999	n/a	BADGE	n/a	n/a	19	[0, 0, 0]	-999	PAL1	1	R1185N
4266.261	2.87	4390655	REC_EVENT	2146	6	4	LAMB	BADGE	BADGE	LAMB	19	[0, 0, 0]	-999	PAL1	1	R1185N
4269.131	0.017	4393525	REC_END	n/a	6	-999	n/a	n/a	n/a	n/a	19	[0, 0, 0]	-999	PAL1	1	R1185N
4269.148	0.934	4393542	TEST_ORIENT	n/a	3	5	ROOF	CANE	CANE	ROOF	19	[0, 0, 0]	-999	PAL1	1	R1185N
4270.082	0.0	4394476	TEST_PROBE	n/a	3	5	ROOF	CANE	CANE	ROOF	19	[0, 0, 0]	-999	PAL1	1	R1185N
4270.082	1.719	4394476	REC_START	n/a	3	-999	n/a	CANE	n/a	n/a	19	[0, 0, 0]	-999	PAL1	1	R1185N
4271.801	1.446	4396195	REC_EVENT	1719	3	5	ROOF	<>	CANE	ROOF	19	[0, 0, 0]	-999	PAL1	1	R1185N
4273.247	1.852	4397641	REC_EVENT	3165	3	5	ROOF	CANE	CANE	ROOF	19	[0, 0, 0]	-999	PAL1	1	R1185N
4275.099	0.017	4399493	REC_END	n/a	3	-999	n/a	n/a	n/a	n/a	19	[0, 0, 0]	-999	PAL1	1	R1185N
4275.116	0.833	4399510	TEST_ORIENT	n/a	4	6	FILM	TRUCK	TRUCK	FILM	19	[0, 0, 0]	-999	PAL1	1	R1185N
4275.949	0.001	4400343	TEST_PROBE	n/a	4	6	FILM	TRUCK	TRUCK	FILM	19	[0, 0, 0]	-999	PAL1	1	R1185N
4275.95	1.021	4400344	REC_START	n/a	4	-999	n/a	TRUCK	n/a	n/a	19	[0, 0, 0]	-999	PAL1	1	R1185N
4276.971	3.988	4401365	REC_EVENT	1021	4	6	FILM	TRUCK	TRUCK	FILM	19	[0, 0, 0]	-999	PAL1	1	R1185N
4280.959	2.826	4405353	REC_END	n/a	4	-999	n/a	n/a	n/a	n/a	19	[0, 0, 0]	-999	PAL1	1	R1185N
4283.785	10.451	4408179	ENCODING_START	n/a	0	-999	n/a	n/a	n/a	n/a	20	[0, 0, 0]	-999	PAL1	1	R1185N
4294.236	0.9	4418629	STUDY_ORIENT	n/a	1	5	BRANCH	n/a	FISH	BRANCH	20	[0, 0, 0]	-999	PAL1	1	R1185N
4295.136	5.034	4419529	STUDY_PAIR	n/a	1	5	BRANCH	n/a	FISH	BRANCH	20	[0, 0, 0]	-999	PAL1	1	R1185N
4300.17	0.817	4424563	STUDY_ORIENT	n/a	2	4	TOAST	EEL	TOAST	SUIT	20	[0, 0, 0]	-999	PAL1	1	R1185N
4300.987	5.034	4425380	STUDY_PAIR	n/a	2	4	TOAST	EEL	TOAST	SUIT	20	[0, 0, 0]	-999	PAL1	1	R1185N
4306.021	0.967	4430414	STUDY_ORIENT	n/a	3	3	COUCH	n/a	STRAW	COUCH	20	[0, 0, 0]	-999	PAL1	1	R1185N
4306.988	5.034	4431381	STUDY_PAIR	n/a	3	3	COUCH	n/a	STRAW	COUCH	20	[0, 0, 0]	-999	PAL1	1	R1185N
4312.022	0.851	4436414	STUDY_ORIENT	n/a	4	6	CALF	n/a	CALF	EEL	20	[0, 0, 0]	-999	PAL1	1	R1185N
4312.873	5.018	4437265	STUDY_PAIR	n/a	4	6	CALF	n/a	CALF	EEL	20	[0, 0, 0]	-999	PAL1	1	R1185N
4317.891	0.932	4442283	STUDY_ORIENT	n/a	5	1	SAIL	n/a	GEESE	SAIL	20	[0, 0, 0]	-999	PAL1	1	R1185N
4318.823	5.018	4443215	STUDY_PAIR	n/a	5	1	SAIL	n/a	GEESE	SAIL	20	[0, 0, 0]	-999	PAL1	1	R1185N
4323.841	0.95	4448233	STUDY_ORIENT	n/a	6	2	RIB	TEACH	SNOW	RIB	20	[0, 0, 0]	-999	PAL1	1	R1185N
4324.791	4.018	4449183	STUDY_PAIR	n/a	6	2	RIB	TEACH	SNOW	RIB	20	[0, 0, 0]	-999	PAL1	1	R1185N
4328.809	0.999	4453201	START	n/a	-999	-999	n/a	n/a	n/a	n/a	20	[-999, -999, -999]	-999	PAL1	1	R1185N
4329.808	0.017	4454200	MATH_START	n/a	-999	-999	n/a	n/a	n/a	n/a	20	[0, 0, 0]	-999	PAL1	1	R1185N
4329.825	8.518	4454217	PROB	8496	-999	-999	n/a	n/a	n/a	n/a	20	[8, 3, 3]	14	PAL1	1	R1185N
4338.343	5.101	4462735	PROB	5074	-999	-999	n/a	n/a	n/a	n/a	20	[9, 5, 4]	18	PAL1	1	R1185N
4343.444	6.213	4467835	PROB	6213	-999	-999	n/a	n/a	n/a	n/a	20	[9, 2, 7]	18	PAL1	1	R1185N
4349.657	0.005	4474048	STOP	n/a	-999	-999	n/a	n/a	n/a	n/a	20	[-999, -999, -999]	-999	PAL1	1	R1185N
4349.662	0.0	4474053	MATH_END	n/a	-999	-999	n/a	n/a	n/a	n/a	20	[0, 0, 0]	-999	PAL1	1	R1185N
4349.662	0.017	4474053	TEST_START	n/a	-999	-999	n/a	n/a	n/a	n/a	20	[0, 0, 0]	-999	PAL1	1	R1185N
4349.679	0.85	4474070	TEST_ORIENT	n/a	5	1	SAIL	n/a	GEESE	SAIL	20	[0, 0, 0]	-999	PAL1	1	R1185N
4350.529	0.0	4474920	TEST_PROBE	n/a	5	1	SAIL	n/a	GEESE	SAIL	20	[0, 0, 0]	-999	PAL1	1	R1185N
4350.529	5.015	4474920	REC_START	n/a	5	-999	n/a	n/a	n/a	n/a	20	[0, 0, 0]	-999	PAL1	1	R1185N
4355.544	0.002	4479935	REC_EVENT	5015	5	1	SAIL	<>	GEESE	SAIL	20	[0, 0, 0]	-999	PAL1	1	R1185N
4355.546	0.017	4479937	REC_END	n/a	5	-999	n/a	n/a	n/a	n/a	20	[0, 0, 0]	-999	PAL1	1	R1185N
4355.563	0.817	4479954	TEST_ORIENT	n/a	6	2	RIB	TEACH	SNOW	RIB	20	[0, 0, 0]	-999	PAL1	1	R1185N
4356.38	0.0	4480771	REC_START	n/a	6	-999	n/a	TEACH	n/a	n/a	20	[0, 0, 0]	-999	PAL1	1	R1185N
4356.38	2.528	4480771	TEST_PROBE	n/a	6	2	RIB	TEACH	SNOW	RIB	20	[0, 0, 0]	-999	PAL1	1	R1185N
4358.908	2.498	4483299	REC_EVENT	2528	6	2	RIB	TEACH	SNOW	RIB	20	[0, 0, 0]	-999	PAL1	1	R1185N
4361.406	0.008	4485797	REC_END	n/a	6	-999	n/a	n/a	n/a	n/a	20	[0, 0, 0]	-999	PAL1	1	R1185N
4361.414	0.983	4485805	TEST_ORIENT	n/a	3	3	COUCH	n/a	STRAW	COUCH	20	[0, 0, 0]	-999	PAL1	1	R1185N
4362.397	0.001	4486788	TEST_PROBE	n/a	3	3	COUCH	n/a	STRAW	COUCH	20	[0, 0, 0]	-999	PAL1	1	R1185N
4362.398	5.009	4486789	REC_START	n/a	3	-999	n/a	n/a	n/a	n/a	20	[0, 0, 0]	-999	PAL1	1	R1185N
4367.407	0.0	4491797	REC_EVENT	5009	3	3	COUCH	<>	STRAW	COUCH	20	[0, 0, 0]	-999	PAL1	1	R1185N
4367.407	0.008	4491797	REC_END	n/a	3	-999	n/a	n/a	n/a	n/a	20	[0, 0, 0]	-999	PAL1	1	R1185N
4367.415	0.8	4491805	TEST_ORIENT	n/a	2	4	TOAST	EEL	TOAST	SUIT	20	[0, 0, 0]	-999	PAL1	1	R1185N
4368.215	0.0	4492605	TEST_PROBE	n/a	2	4	TOAST	EEL	TOAST	SUIT	20	[0, 0, 0]	-999	PAL1	1	R1185N
4368.215	2.157	4492605	REC_START	n/a	2	-999	n/a	EEL	n/a	n/a	20	[0, 0, 0]	-999	PAL1	1	R1185N
4370.372	2.86	4494762	REC_EVENT	2157	2	4	TOAST	EEL	TOAST	SUIT	20	[0, 0, 0]	-999	PAL1	1	R1185N
4373.232	0.017	4497622	REC_END	n/a	2	-999	n/a	n/a	n/a	n/a	20	[0, 0, 0]	-999	PAL1	1	R1185N
4373.249	1.034	4497639	TEST_ORIENT	n/a	1	5	BRANCH	n/a	FISH	BRANCH	20	[0, 0, 0]	-999	PAL1	1	R1185N
4374.283	0.0	4498673	TEST_PROBE	n/a	1	5	BRANCH	n/a	FISH	BRANCH	20	[0, 0, 0]	-999	PAL1	1	R1185N
4374.283	5.015	4498673	REC_START	n/a	1	-999	n/a	n/a	n/a	n/a	20	[0, 0, 0]	-999	PAL1	1	R1185N
4379.298	0.002	4503688	REC_EVENT	5015	1	5	BRANCH	<>	FISH	BRANCH	20	[0, 0, 0]	-999	PAL1	1	R1185N
4379.3	0.017	4503690	REC_END	n/a	1	-999	n/a	n/a	n/a	n/a	20	[0, 0, 0]	-999	PAL1	1	R1185N
4379.317	1.0	4503707	TEST_ORIENT	n/a	4	6	CALF	n/a	CALF	EEL	20	[0, 0, 0]	-999	PAL1	1	R1185N
4380.317	0.001	4504707	TEST_PROBE	n/a	4	6	CALF	n/a	CALF	EEL	20	[0, 0, 0]	-999	PAL1	1	R1185N
4380.318	5.026	4504708	REC_START	n/a	4	-999	n/a	n/a	n/a	n/a	20	[0, 0, 0]	-999	PAL1	1	R1185N
4385.344	0.001	4509734	REC_END	n/a	4	-999	n/a	n/a	n/a	n/a	20	[0, 0, 0]	-999	PAL1	1	R1185N
4385.345	3.12	4509735	REC_EVENT	5027	4	6	CALF	<>	CALF	EEL	20	[0, 0, 0]	-999	PAL1	1	R1185N
4388.465	10.439	4512855	ENCODING_START	n/a	0	-999	n/a	n/a	n/a	n/a	21	[0, 0, 0]	-999	PAL1	1	R1185N
4398.904	0.984	4523293	STUDY_ORIENT	n/a	1	3	THREAD	n/a	THREAD	BOWL	21	[0, 0, 0]	-999	PAL1	1	R1185N
4399.888	5.034	4524277	STUDY_PAIR	n/a	1	3	THREAD	n/a	THREAD	BOWL	21	[0, 0, 0]	-999	PAL1	1	R1185N
4404.922	0.95	4529311	STUDY_ORIENT	n/a	2	6	RAKE	YARD	SIGN	RAKE	21	[0, 0, 0]	-999	PAL1	1	R1185N
4405.872	5.018	4530261	STUDY_PAIR	n/a	2	6	RAKE	YARD	SIGN	RAKE	21	[0, 0, 0]	-999	PAL1	1	R1185N
4410.89	0.782	4535279	STUDY_ORIENT	n/a	3	1	PIE	n/a	CASH	PIE	21	[0, 0, 0]	-999	PAL1	1	R1185N
4411.672	5.018	4536061	STUDY_PAIR	n/a	3	1	PIE	n/a	CASH	PIE	21	[0, 0, 0]	-999	PAL1	1	R1185N
4416.69	0.767	4541079	STUDY_ORIENT	n/a	4	4	MOLE	GRAND	CHIEF	MOLE	21	[0, 0, 0]	-999	PAL1	1	R1185N
4417.457	5.034	4541846	STUDY_PAIR	n/a	4	4	MOLE	GRAND	CHIEF	MOLE	21	[0, 0, 0]	-999	PAL1	1	R1185N
4422.491	0.783	4546879	STUDY_ORIENT	n/a	5	5	ZOO	HORSE	ZOO	HORSE	21	[0, 0, 0]	-999	PAL1	1	R1185N
4423.274	5.018	4547662	STUDY_PAIR	n/a	5	5	ZOO	HORSE	ZOO	HORSE	21	[0, 0, 0]	-999	PAL1	1	R1185N
4428.292	0.966	4552680	STUDY_ORIENT	n/a	6	2	MUD	PIPE	MUD	PIPE	21	[0, 0, 0]	-999	PAL1	1	R1185N
4429.258	4.002	4553646	STUDY_PAIR	n/a	6	2	MUD	PIPE	MUD	PIPE	21	[0, 0, 0]	-999	PAL1	1	R1185N
4433.26	0.999	4557648	START	n/a	-999	-999	n/a	n/a	n/a	n/a	21	[-999, -999, -999]	-999	PAL1	1	R1185N
4434.259	0.017	4558647	MATH_START	n/a	-999	-999	n/a	n/a	n/a	n/a	21	[0, 0, 0]	-999	PAL1	1	R1185N
4434.276	11.369	4558664	PROB	11349	-999	-999	n/a	n/a	n/a	n/a	21	[2, 5, 6]	13	PAL1	1	R1185N
4445.645	6.601	4570033	PROB	6580	-999	-999	n/a	n/a	n/a	n/a	21	[7, 3, 7]	17	PAL1	1	R1185N
4452.246	19.707	4576633	PROB	19707	-999	-999	n/a	n/a	n/a	n/a	21	[6, 7, 5]	18	PAL1	1	R1185N
4471.953	0.013	4596340	STOP	n/a	-999	-999	n/a	n/a	n/a	n/a	21	[-999, -999, -999]	-999	PAL1	1	R1185N
4471.966	0.0	4596353	MATH_END	n/a	-999	-999	n/a	n/a	n/a	n/a	21	[0, 0, 0]	-999	PAL1	1	R1185N
4471.966	0.016	4596353	TEST_START	n/a	-999	-999	n/a	n/a	n/a	n/a	21	[0, 0, 0]	-999	PAL1	1	R1185N
4471.982	0.834	4596369	TEST_ORIENT	n/a	3	1	PIE	n/a	CASH	PIE	21	[0, 0, 0]	-999	PAL1	1	R1185N
4472.816	0.001	4597203	TEST_PROBE	n/a	3	1	PIE	n/a	CASH	PIE	21	[0, 0, 0]	-999	PAL1	1	R1185N
4472.817	5.021	4597204	REC_START	n/a	3	-999	n/a	n/a	n/a	n/a	21	[0, 0, 0]	-999	PAL1	1	R1185N
4477.838	0.004	4602224	REC_EVENT	5021	3	1	PIE	<>	CASH	PIE	21	[0, 0, 0]	-999	PAL1	1	R1185N
4477.842	0.008	4602228	REC_END	n/a	3	-999	n/a	n/a	n/a	n/a	21	[0, 0, 0]	-999	PAL1	1	R1185N
4477.85	1.035	4602236	TEST_ORIENT	n/a	6	2	MUD	PIPE	MUD	PIPE	21	[0, 0, 0]	-999	PAL1	1	R1185N
4478.885	0.0	4603271	REC_START	n/a	6	-999	n/a	PIPE	n/a	n/a	21	[0, 0, 0]	-999	PAL1	1	R1185N
4478.885	1.599	4603271	TEST_PROBE	n/a	6	2	MUD	PIPE	MUD	PIPE	21	[0, 0, 0]	-999	PAL1	1	R1185N
4480.484	3.428	4604870	REC_EVENT	1599	6	2	MUD	PIPE	MUD	PIPE	21	[0, 0, 0]	-999	PAL1	1	R1185N
4483.912	0.007	4608298	REC_END	n/a	6	-999	n/a	n/a	n/a	n/a	21	[0, 0, 0]	-999	PAL1	1	R1185N
4483.919	0.95	4608305	TEST_ORIENT	n/a	1	3	THREAD	n/a	THREAD	BOWL	21	[0, 0, 0]	-999	PAL1	1	R1185N
4484.869	0.001	4609255	TEST_PROBE	n/a	1	3	THREAD	n/a	THREAD	BOWL	21	[0, 0, 0]	-999	PAL1	1	R1185N
4484.87	5.025	4609256	REC_START	n/a	1	-999	n/a	n/a	n/a	n/a	21	[0, 0, 0]	-999	PAL1	1	R1185N
4489.895	0.002	4614281	REC_END	n/a	1	-999	n/a	n/a	n/a	n/a	21	[0, 0, 0]	-999	PAL1	1	R1185N
4489.897	0.006	4614283	REC_EVENT	5027	1	3	THREAD	<>	THREAD	BOWL	21	[0, 0, 0]	-999	PAL1	1	R1185N
4489.903	0.967	4614289	TEST_ORIENT	n/a	4	4	MOLE	GRAND	CHIEF	MOLE	21	[0, 0, 0]	-999	PAL1	1	R1185N
4490.87	0.0	4615256	TEST_PROBE	n/a	4	4	MOLE	GRAND	CHIEF	MOLE	21	[0, 0, 0]	-999	PAL1	1	R1185N
4490.87	2.712	4615256	REC_START	n/a	4	-999	n/a	GRAND	n/a	n/a	21	[0, 0, 0]	-999	PAL1	1	R1185N
4493.582	2.305	4617968	REC_EVENT	2712	4	4	MOLE	GRAND	CHIEF	MOLE	21	[0, 0, 0]	-999	PAL1	1	R1185N
4495.887	0.017	4620273	REC_END	n/a	4	-999	n/a	n/a	n/a	n/a	21	[0, 0, 0]	-999	PAL1	1	R1185N
