onset	duration	sample	trial_type	response_time	stim_file	serialpos	probepos	probe_word	resp_word	study_1	study_2	list	test	answer	experiment	session	subject
0.0	61.056	505712	SESS_START	n/a	n/a	-999	-999	n/a	n/a	n/a	n/a	-999	[0, 0, 0]	-999	PAL1	1	R1136N
61.056	1.017	566765	START	n/a	n/a	-999	-999	n/a	n/a	n/a	n/a	-1	[-999, -999, -999]	-999	PAL1	1	R1136N
62.073	3.767	567782	PROB	3735	n/a	-999	-999	n/a	n/a	n/a	n/a	-1	[3, 8, 2]	13	PAL1	1	R1136N
65.84	4.75	571549	PROB	4722	n/a	-999	-999	n/a	n/a	n/a	n/a	-1	[8, 3, 9]	20	PAL1	1	R1136N
70.59	3.952	576298	PROB	3915	n/a	-999	-999	n/a	n/a	n/a	n/a	-1	[9, 8, 4]	21	PAL1	1	R1136N
74.542	4.766	580250	PROB	4732	n/a	-999	-999	n/a	n/a	n/a	n/a	-1	[2, 1, 3]	6	PAL1	1	R1136N
79.308	3.926	585016	PROB	3926	n/a	-999	-999	n/a	n/a	n/a	n/a	-1	[8, 4, 3]	15	PAL1	1	R1136N
83.234	45.688	588942	STOP	n/a	n/a	-999	-999	n/a	n/a	n/a	n/a	-1	[-999, -999, -999]	-999	PAL1	1	R1136N
128.922	10.447	634627	ENCODING_START	n/a	n/a	0	-999	n/a	n/a	n/a	n/a	1	[0, 0, 0]	-999	PAL1	1	R1136N
139.369	0.95	645074	STUDY_ORIENT	n/a	n/a	1	5	STORE	n/a	STORE	DITCH	1	[0, 0, 0]	-999	PAL1	1	R1136N
140.319	5.034	646024	STUDY_PAIR	n/a	wordpools/wordpool_EN.txt	1	5	STORE	n/a	STORE	DITCH	1	[0, 0, 0]	-999	PAL1	1	R1136N
145.353	0.9	651057	STUDY_ORIENT	n/a	n/a	2	4	TANK	n/a	PIPE	TANK	1	[0, 0, 0]	-999	PAL1	1	R1136N
146.253	5.034	651957	STUDY_PAIR	n/a	wordpools/wordpool_EN.txt	2	4	TANK	n/a	PIPE	TANK	1	[0, 0, 0]	-999	PAL1	1	R1136N
151.287	0.967	656991	STUDY_ORIENT	n/a	n/a	3	3	NOSE	n/a	NOSE	SHIP	1	[0, 0, 0]	-999	PAL1	1	R1136N
152.254	5.035	657958	STUDY_PAIR	n/a	wordpools/wordpool_EN.txt	3	3	NOSE	n/a	NOSE	SHIP	1	[0, 0, 0]	-999	PAL1	1	R1136N
157.289	1.017	662993	STUDY_ORIENT	n/a	n/a	4	6	BEAR	n/a	KEY	BEAR	1	[0, 0, 0]	-999	PAL1	1	R1136N
158.306	5.034	664010	STUDY_PAIR	n/a	wordpools/wordpool_EN.txt	4	6	BEAR	n/a	KEY	BEAR	1	[0, 0, 0]	-999	PAL1	1	R1136N
163.34	0.95	669044	STUDY_ORIENT	n/a	n/a	5	1	COIN	WEB	COIN	WEB	1	[0, 0, 0]	-999	PAL1	1	R1136N
164.29	5.034	669993	STUDY_PAIR	n/a	wordpools/wordpool_EN.txt	5	1	COIN	WEB	COIN	WEB	1	[0, 0, 0]	-999	PAL1	1	R1136N
169.324	0.934	675027	STUDY_ORIENT	n/a	n/a	6	2	TOY	n/a	TOY	GOAT	1	[0, 0, 0]	-999	PAL1	1	R1136N
170.258	4.017	675961	STUDY_PAIR	n/a	wordpools/wordpool_EN.txt	6	2	TOY	n/a	TOY	GOAT	1	[0, 0, 0]	-999	PAL1	1	R1136N
174.275	0.999	679978	START	n/a	n/a	-999	-999	n/a	n/a	n/a	n/a	1	[-999, -999, -999]	-999	PAL1	1	R1136N
175.274	0.017	680977	MATH_START	n/a	n/a	-999	-999	n/a	n/a	n/a	n/a	1	[0, 0, 0]	-999	PAL1	1	R1136N
175.291	4.634	680994	PROB	4598	n/a	-999	-999	n/a	n/a	n/a	n/a	1	[4, 8, 5]	17	PAL1	1	R1136N
179.925	3.501	685628	PROB	3468	n/a	-999	-999	n/a	n/a	n/a	n/a	1	[5, 1, 8]	14	PAL1	1	R1136N
183.426	2.918	689128	PROB	2887	n/a	-999	-999	n/a	n/a	n/a	n/a	1	[5, 6, 9]	20	PAL1	1	R1136N
186.344	3.183	692046	PROB	3154	n/a	-999	-999	n/a	n/a	n/a	n/a	1	[9, 8, 2]	19	PAL1	1	R1136N
189.527	2.651	695229	PROB	2619	n/a	-999	-999	n/a	n/a	n/a	n/a	1	[2, 1, 7]	10	PAL1	1	R1136N
192.178	3.08	697880	PROB	3080	n/a	-999	-999	n/a	n/a	n/a	n/a	1	[3, 2, 7]	12	PAL1	1	R1136N
195.258	0.003	700960	STOP	n/a	n/a	-999	-999	n/a	n/a	n/a	n/a	1	[-999, -999, -999]	-999	PAL1	1	R1136N
195.261	0.0	700963	MATH_END	n/a	n/a	-999	-999	n/a	n/a	n/a	n/a	1	[0, 0, 0]	-999	PAL1	1	R1136N
195.261	0.018	700963	TEST_START	n/a	n/a	-999	-999	n/a	n/a	n/a	n/a	1	[0, 0, 0]	-999	PAL1	1	R1136N
195.279	0.8	700981	TEST_ORIENT	n/a	n/a	5	1	COIN	WEB	COIN	WEB	1	[0, 0, 0]	-999	PAL1	1	R1136N
196.079	0.001	701781	TEST_PROBE	n/a	wordpools/wordpool_EN.txt	5	1	COIN	WEB	COIN	WEB	1	[0, 0, 0]	-999	PAL1	1	R1136N
196.08	2.454	701782	REC_START	n/a	n/a	5	-999	n/a	WEB	n/a	n/a	1	[0, 0, 0]	-999	PAL1	1	R1136N
198.534	2.57	704236	REC_EVENT	2454	n/a	5	1	COIN	WEB	COIN	WEB	1	[0, 0, 0]	-999	PAL1	1	R1136N
201.104	0.009	706806	REC_END	n/a	n/a	5	-999	n/a	n/a	n/a	n/a	1	[0, 0, 0]	-999	PAL1	1	R1136N
201.113	0.967	706815	TEST_ORIENT	n/a	n/a	6	2	TOY	n/a	TOY	GOAT	1	[0, 0, 0]	-999	PAL1	1	R1136N
202.08	0.0	707782	TEST_PROBE	n/a	wordpools/wordpool_EN.txt	6	2	TOY	n/a	TOY	GOAT	1	[0, 0, 0]	-999	PAL1	1	R1136N
202.08	4.899	707782	REC_START	n/a	n/a	6	-999	n/a	n/a	n/a	n/a	1	[0, 0, 0]	-999	PAL1	1	R1136N
206.979	0.117	712680	REC_EVENT	4899	n/a	6	2	TOY	<>	TOY	GOAT	1	[0, 0, 0]	-999	PAL1	1	R1136N
207.096	0.018	712797	REC_END	n/a	n/a	6	-999	n/a	n/a	n/a	n/a	1	[0, 0, 0]	-999	PAL1	1	R1136N
207.114	0.866	712815	TEST_ORIENT	n/a	n/a	3	3	NOSE	n/a	NOSE	SHIP	1	[0, 0, 0]	-999	PAL1	1	R1136N
207.98	0.001	713681	TEST_PROBE	n/a	wordpools/wordpool_EN.txt	3	3	NOSE	n/a	NOSE	SHIP	1	[0, 0, 0]	-999	PAL1	1	R1136N
207.981	4.899	713682	REC_START	n/a	n/a	3	-999	n/a	n/a	n/a	n/a	1	[0, 0, 0]	-999	PAL1	1	R1136N
212.88	0.125	718581	REC_EVENT	4899	n/a	3	3	NOSE	<>	NOSE	SHIP	1	[0, 0, 0]	-999	PAL1	1	R1136N
213.005	0.01	718706	REC_END	n/a	n/a	3	-999	n/a	n/a	n/a	n/a	1	[0, 0, 0]	-999	PAL1	1	R1136N
213.015	1.016	718716	TEST_ORIENT	n/a	n/a	2	4	TANK	n/a	PIPE	TANK	1	[0, 0, 0]	-999	PAL1	1	R1136N
214.031	0.001	719732	TEST_PROBE	n/a	wordpools/wordpool_EN.txt	2	4	TANK	n/a	PIPE	TANK	1	[0, 0, 0]	-999	PAL1	1	R1136N
214.032	4.899	719733	REC_START	n/a	n/a	2	-999	n/a	n/a	n/a	n/a	1	[0, 0, 0]	-999	PAL1	1	R1136N
218.931	0.126	724632	REC_EVENT	4899	n/a	2	4	TANK	<>	PIPE	TANK	1	[0, 0, 0]	-999	PAL1	1	R1136N
219.057	0.008	724758	REC_END	n/a	n/a	2	-999	n/a	n/a	n/a	n/a	1	[0, 0, 0]	-999	PAL1	1	R1136N
219.065	0.867	724766	TEST_ORIENT	n/a	n/a	1	5	STORE	n/a	STORE	DITCH	1	[0, 0, 0]	-999	PAL1	1	R1136N
219.932	0.001	725633	TEST_PROBE	n/a	wordpools/wordpool_EN.txt	1	5	STORE	n/a	STORE	DITCH	1	[0, 0, 0]	-999	PAL1	1	R1136N
219.933	4.899	725634	REC_START	n/a	n/a	1	-999	n/a	n/a	n/a	n/a	1	[0, 0, 0]	-999	PAL1	1	R1136N
224.832	0.125	730532	REC_EVENT	4899	n/a	1	5	STORE	<>	STORE	DITCH	1	[0, 0, 0]	-999	PAL1	1	R1136N
224.957	0.01	730657	REC_END	n/a	n/a	1	-999	n/a	n/a	n/a	n/a	1	[0, 0, 0]	-999	PAL1	1	R1136N
224.967	1.017	730667	TEST_ORIENT	n/a	n/a	4	6	BEAR	n/a	KEY	BEAR	1	[0, 0, 0]	-999	PAL1	1	R1136N
225.984	0.0	731684	REC_START	n/a	n/a	4	-999	n/a	n/a	n/a	n/a	1	[0, 0, 0]	-999	PAL1	1	R1136N
225.984	4.922	731684	TEST_PROBE	n/a	wordpools/wordpool_EN.txt	4	6	BEAR	n/a	KEY	BEAR	1	[0, 0, 0]	-999	PAL1	1	R1136N
230.906	0.095	736606	REC_EVENT	4922	n/a	4	6	BEAR	<>	KEY	BEAR	1	[0, 0, 0]	-999	PAL1	1	R1136N
231.001	2.288	736701	REC_END	n/a	n/a	4	-999	n/a	n/a	n/a	n/a	1	[0, 0, 0]	-999	PAL1	1	R1136N
233.289	10.448	738989	ENCODING_START	n/a	n/a	0	-999	n/a	n/a	n/a	n/a	2	[0, 0, 0]	-999	PAL1	1	R1136N
243.737	0.833	749436	STUDY_ORIENT	n/a	n/a	1	3	OAR	GLOVE	GLOVE	OAR	2	[0, 0, 0]	-999	PAL1	1	R1136N
244.57	5.034	750269	STUDY_PAIR	n/a	wordpools/wordpool_EN.txt	1	3	OAR	GLOVE	GLOVE	OAR	2	[0, 0, 0]	-999	PAL1	1	R1136N
249.604	0.867	755303	STUDY_ORIENT	n/a	n/a	2	4	BEAN	n/a	CUBE	BEAN	2	[0, 0, 0]	-999	PAL1	1	R1136N
250.471	5.034	756170	STUDY_PAIR	n/a	wordpools/wordpool_EN.txt	2	4	BEAN	n/a	CUBE	BEAN	2	[0, 0, 0]	-999	PAL1	1	R1136N
255.505	0.9	761204	STUDY_ORIENT	n/a	n/a	3	1	PASTE	n/a	SHEET	PASTE	2	[0, 0, 0]	-999	PAL1	1	R1136N
256.405	5.034	762104	STUDY_PAIR	n/a	wordpools/wordpool_EN.txt	3	1	PASTE	n/a	SHEET	PASTE	2	[0, 0, 0]	-999	PAL1	1	R1136N
261.439	0.917	767137	STUDY_ORIENT	n/a	n/a	4	2	PEN	n/a	PEN	FUR	2	[0, 0, 0]	-999	PAL1	1	R1136N
262.356	5.034	768054	STUDY_PAIR	n/a	wordpools/wordpool_EN.txt	4	2	PEN	n/a	PEN	FUR	2	[0, 0, 0]	-999	PAL1	1	R1136N
267.39	1.0	773088	STUDY_ORIENT	n/a	n/a	5	5	FENCE	PIG	PIG	FENCE	2	[0, 0, 0]	-999	PAL1	1	R1136N
268.39	5.034	774088	STUDY_PAIR	n/a	wordpools/wordpool_EN.txt	5	5	FENCE	PIG	PIG	FENCE	2	[0, 0, 0]	-999	PAL1	1	R1136N
273.424	0.851	779122	STUDY_ORIENT	n/a	n/a	6	6	CONE	n/a	CONE	JAIL	2	[0, 0, 0]	-999	PAL1	1	R1136N
274.275	4.018	779973	STUDY_PAIR	n/a	wordpools/wordpool_EN.txt	6	6	CONE	n/a	CONE	JAIL	2	[0, 0, 0]	-999	PAL1	1	R1136N
278.293	0.999	783991	START	n/a	n/a	-999	-999	n/a	n/a	n/a	n/a	2	[-999, -999, -999]	-999	PAL1	1	R1136N
279.292	0.018	784989	MATH_START	n/a	n/a	-999	-999	n/a	n/a	n/a	n/a	2	[0, 0, 0]	-999	PAL1	1	R1136N
279.31	4.967	785007	PROB	4932	n/a	-999	-999	n/a	n/a	n/a	n/a	2	[4, 5, 8]	17	PAL1	1	R1136N
284.277	2.983	789974	PROB	2956	n/a	-999	-999	n/a	n/a	n/a	n/a	2	[9, 6, 3]	19	PAL1	1	R1136N
287.26	2.667	792957	PROB	2645	n/a	-999	-999	n/a	n/a	n/a	n/a	2	[5, 3, 7]	15	PAL1	1	R1136N
289.927	3.085	795624	PROB	3059	n/a	-999	-999	n/a	n/a	n/a	n/a	2	[6, 9, 6]	21	PAL1	1	R1136N
293.012	2.782	798709	PROB	2758	n/a	-999	-999	n/a	n/a	n/a	n/a	2	[4, 3, 2]	9	PAL1	1	R1136N
295.794	2.318	801491	PROB	2288	n/a	-999	-999	n/a	n/a	n/a	n/a	2	[8, 2, 6]	16	PAL1	1	R1136N
298.112	1.993	803808	PROB	1993	n/a	-999	-999	n/a	n/a	n/a	n/a	2	[5, 9, 1]	15	PAL1	1	R1136N
300.105	0.008	805801	STOP	n/a	n/a	-999	-999	n/a	n/a	n/a	n/a	2	[-999, -999, -999]	-999	PAL1	1	R1136N
300.113	0.0	805809	TEST_START	n/a	n/a	-999	-999	n/a	n/a	n/a	n/a	2	[0, 0, 0]	-999	PAL1	1	R1136N
300.113	0.016	805809	MATH_END	n/a	n/a	-999	-999	n/a	n/a	n/a	n/a	2	[0, 0, 0]	-999	PAL1	1	R1136N
300.129	0.834	805825	TEST_ORIENT	n/a	n/a	3	1	PASTE	n/a	SHEET	PASTE	2	[0, 0, 0]	-999	PAL1	1	R1136N
300.963	0.0	806659	TEST_PROBE	n/a	wordpools/wordpool_EN.txt	3	1	PASTE	n/a	SHEET	PASTE	2	[0, 0, 0]	-999	PAL1	1	R1136N
300.963	4.899	806659	REC_START	n/a	n/a	3	-999	n/a	n/a	n/a	n/a	2	[0, 0, 0]	-999	PAL1	1	R1136N
305.862	0.118	811558	REC_EVENT	4899	n/a	3	1	PASTE	<>	SHEET	PASTE	2	[0, 0, 0]	-999	PAL1	1	R1136N
305.98	0.017	811676	REC_END	n/a	n/a	3	-999	n/a	n/a	n/a	n/a	2	[0, 0, 0]	-999	PAL1	1	R1136N
305.997	0.967	811693	TEST_ORIENT	n/a	n/a	4	2	PEN	n/a	PEN	FUR	2	[0, 0, 0]	-999	PAL1	1	R1136N
306.964	0.001	812660	TEST_PROBE	n/a	wordpools/wordpool_EN.txt	4	2	PEN	n/a	PEN	FUR	2	[0, 0, 0]	-999	PAL1	1	R1136N
306.965	4.806	812661	REC_START	n/a	n/a	4	-999	n/a	n/a	n/a	n/a	2	[0, 0, 0]	-999	PAL1	1	R1136N
311.771	0.219	817467	REC_EVENT	4806	n/a	4	2	PEN	<>	PEN	FUR	2	[0, 0, 0]	-999	PAL1	1	R1136N
311.99	0.008	817686	REC_END	n/a	n/a	4	-999	n/a	n/a	n/a	n/a	2	[0, 0, 0]	-999	PAL1	1	R1136N
311.998	0.883	817694	TEST_ORIENT	n/a	n/a	1	3	OAR	GLOVE	GLOVE	OAR	2	[0, 0, 0]	-999	PAL1	1	R1136N
312.881	0.001	818577	TEST_PROBE	n/a	wordpools/wordpool_EN.txt	1	3	OAR	GLOVE	GLOVE	OAR	2	[0, 0, 0]	-999	PAL1	1	R1136N
312.882	1.495	818578	REC_START	n/a	n/a	1	-999	n/a	GLOVE	n/a	n/a	2	[0, 0, 0]	-999	PAL1	1	R1136N
314.377	3.529	820073	REC_EVENT	1495	n/a	1	3	OAR	GLOVE	GLOVE	OAR	2	[0, 0, 0]	-999	PAL1	1	R1136N
317.906	0.009	823601	REC_END	n/a	n/a	1	-999	n/a	n/a	n/a	n/a	2	[0, 0, 0]	-999	PAL1	1	R1136N
317.915	0.884	823610	TEST_ORIENT	n/a	n/a	2	4	BEAN	n/a	CUBE	BEAN	2	[0, 0, 0]	-999	PAL1	1	R1136N
318.799	0.0	824494	REC_START	n/a	n/a	2	-999	n/a	n/a	n/a	n/a	2	[0, 0, 0]	-999	PAL1	1	R1136N
318.799	4.876	824494	TEST_PROBE	n/a	wordpools/wordpool_EN.txt	2	4	BEAN	n/a	CUBE	BEAN	2	[0, 0, 0]	-999	PAL1	1	R1136N
323.675	0.141	829370	REC_EVENT	4876	n/a	2	4	BEAN	<>	CUBE	BEAN	2	[0, 0, 0]	-999	PAL1	1	R1136N
323.816	0.017	829511	REC_END	n/a	n/a	2	-999	n/a	n/a	n/a	n/a	2	[0, 0, 0]	-999	PAL1	1	R1136N
323.833	0.8	829528	TEST_ORIENT	n/a	n/a	5	5	FENCE	PIG	PIG	FENCE	2	[0, 0, 0]	-999	PAL1	1	R1136N
324.633	0.001	830328	TEST_PROBE	n/a	wordpools/wordpool_EN.txt	5	5	FENCE	PIG	PIG	FENCE	2	[0, 0, 0]	-999	PAL1	1	R1136N
324.634	1.938	830329	REC_START	n/a	n/a	5	-999	n/a	PIG	n/a	n/a	2	[0, 0, 0]	-999	PAL1	1	R1136N
326.572	3.087	832267	REC_EVENT	1938	n/a	5	5	FENCE	PIG	PIG	FENCE	2	[0, 0, 0]	-999	PAL1	1	R1136N
329.659	0.009	835354	REC_END	n/a	n/a	5	-999	n/a	n/a	n/a	n/a	2	[0, 0, 0]	-999	PAL1	1	R1136N
329.668	0.867	835363	TEST_ORIENT	n/a	n/a	6	6	CONE	n/a	CONE	JAIL	2	[0, 0, 0]	-999	PAL1	1	R1136N
330.535	0.001	836230	TEST_PROBE	n/a	wordpools/wordpool_EN.txt	6	6	CONE	n/a	CONE	JAIL	2	[0, 0, 0]	-999	PAL1	1	R1136N
330.536	4.876	836231	REC_START	n/a	n/a	6	-999	n/a	n/a	n/a	n/a	2	[0, 0, 0]	-999	PAL1	1	R1136N
335.412	0.14	841107	REC_EVENT	4876	n/a	6	6	CONE	<>	CONE	JAIL	2	[0, 0, 0]	-999	PAL1	1	R1136N
335.552	1.666	841247	REC_END	n/a	n/a	6	-999	n/a	n/a	n/a	n/a	2	[0, 0, 0]	-999	PAL1	1	R1136N
337.218	10.453	842912	ENCODING_START	n/a	n/a	0	-999	n/a	n/a	n/a	n/a	3	[0, 0, 0]	-999	PAL1	1	R1136N
347.671	0.984	853365	STUDY_ORIENT	n/a	n/a	1	5	SKUNK	n/a	SKUNK	ELF	3	[0, 0, 0]	-999	PAL1	1	R1136N
348.655	5.033	854349	STUDY_PAIR	n/a	wordpools/wordpool_EN.txt	1	5	SKUNK	n/a	SKUNK	ELF	3	[0, 0, 0]	-999	PAL1	1	R1136N
353.688	1.018	859382	STUDY_ORIENT	n/a	n/a	2	4	SNOW	HOSE	SNOW	HOSE	3	[0, 0, 0]	-999	PAL1	1	R1136N
354.706	5.033	860400	STUDY_PAIR	n/a	wordpools/wordpool_EN.txt	2	4	SNOW	HOSE	SNOW	HOSE	3	[0, 0, 0]	-999	PAL1	1	R1136N
359.739	0.901	865432	STUDY_ORIENT	n/a	n/a	3	3	WORLD	MAP	WORLD	MAP	3	[0, 0, 0]	-999	PAL1	1	R1136N
360.64	5.034	866333	STUDY_PAIR	n/a	wordpools/wordpool_EN.txt	3	3	WORLD	MAP	WORLD	MAP	3	[0, 0, 0]	-999	PAL1	1	R1136N
365.674	0.867	871367	STUDY_ORIENT	n/a	n/a	4	6	CRANE	n/a	CRANE	HOOF	3	[0, 0, 0]	-999	PAL1	1	R1136N
366.541	5.034	872234	STUDY_PAIR	n/a	wordpools/wordpool_EN.txt	4	6	CRANE	n/a	CRANE	HOOF	3	[0, 0, 0]	-999	PAL1	1	R1136N
371.575	1.017	877268	STUDY_ORIENT	n/a	n/a	5	1	AXE	n/a	AXE	SHELL	3	[0, 0, 0]	-999	PAL1	1	R1136N
372.592	5.034	878285	STUDY_PAIR	n/a	wordpools/wordpool_EN.txt	5	1	AXE	n/a	AXE	SHELL	3	[0, 0, 0]	-999	PAL1	1	R1136N
377.626	1.016	883318	STUDY_ORIENT	n/a	n/a	6	2	TAIL	n/a	FORT	TAIL	3	[0, 0, 0]	-999	PAL1	1	R1136N
378.642	4.018	884334	STUDY_PAIR	n/a	wordpools/wordpool_EN.txt	6	2	TAIL	n/a	FORT	TAIL	3	[0, 0, 0]	-999	PAL1	1	R1136N
382.66	1.0	888352	START	n/a	n/a	-999	-999	n/a	n/a	n/a	n/a	3	[-999, -999, -999]	-999	PAL1	1	R1136N
383.66	0.017	889352	MATH_START	n/a	n/a	-999	-999	n/a	n/a	n/a	n/a	3	[0, 0, 0]	-999	PAL1	1	R1136N
383.677	4.734	889369	PROB	4708	n/a	-999	-999	n/a	n/a	n/a	n/a	3	[5, 5, 7]	17	PAL1	1	R1136N
388.411	3.033	894103	PROB	2998	n/a	-999	-999	n/a	n/a	n/a	n/a	3	[1, 2, 4]	7	PAL1	1	R1136N
391.444	2.084	897136	PROB	2061	n/a	-999	-999	n/a	n/a	n/a	n/a	3	[8, 5, 8]	21	PAL1	1	R1136N
393.528	1.968	899220	PROB	1938	n/a	-999	-999	n/a	n/a	n/a	n/a	3	[5, 5, 7]	17	PAL1	1	R1136N
395.496	3.333	901187	PROB	3304	n/a	-999	-999	n/a	n/a	n/a	n/a	3	[9, 9, 1]	19	PAL1	1	R1136N
398.829	2.468	904520	PROB	2445	n/a	-999	-999	n/a	n/a	n/a	n/a	3	[1, 2, 6]	9	PAL1	1	R1136N
401.297	7.793	906988	PROB	7793	n/a	-999	-999	n/a	n/a	n/a	n/a	3	[4, 4, 5]	13	PAL1	1	R1136N
409.09	0.008	914781	STOP	n/a	n/a	-999	-999	n/a	n/a	n/a	n/a	3	[-999, -999, -999]	-999	PAL1	1	R1136N
409.098	0.0	914789	TEST_START	n/a	n/a	-999	-999	n/a	n/a	n/a	n/a	3	[0, 0, 0]	-999	PAL1	1	R1136N
409.098	0.016	914789	MATH_END	n/a	n/a	-999	-999	n/a	n/a	n/a	n/a	3	[0, 0, 0]	-999	PAL1	1	R1136N
409.114	0.817	914805	TEST_ORIENT	n/a	n/a	5	1	AXE	n/a	AXE	SHELL	3	[0, 0, 0]	-999	PAL1	1	R1136N
409.931	0.001	915622	TEST_PROBE	n/a	wordpools/wordpool_EN.txt	5	1	AXE	n/a	AXE	SHELL	3	[0, 0, 0]	-999	PAL1	1	R1136N
409.932	4.992	915623	REC_START	n/a	n/a	5	-999	n/a	n/a	n/a	n/a	3	[0, 0, 0]	-999	PAL1	1	R1136N
414.924	0.033	920614	REC_EVENT	4992	n/a	5	1	AXE	<>	AXE	SHELL	3	[0, 0, 0]	-999	PAL1	1	R1136N
414.957	0.008	920647	REC_END	n/a	n/a	5	-999	n/a	n/a	n/a	n/a	3	[0, 0, 0]	-999	PAL1	1	R1136N
414.965	0.934	920655	TEST_ORIENT	n/a	n/a	6	2	TAIL	n/a	FORT	TAIL	3	[0, 0, 0]	-999	PAL1	1	R1136N
415.899	0.0	921589	TEST_PROBE	n/a	wordpools/wordpool_EN.txt	6	2	TAIL	n/a	FORT	TAIL	3	[0, 0, 0]	-999	PAL1	1	R1136N
415.899	4.852	921589	REC_START	n/a	n/a	6	-999	n/a	n/a	n/a	n/a	3	[0, 0, 0]	-999	PAL1	1	R1136N
420.751	0.169	926441	REC_EVENT	4852	n/a	6	2	TAIL	<>	FORT	TAIL	3	[0, 0, 0]	-999	PAL1	1	R1136N
420.92	0.013	926610	REC_END	n/a	n/a	6	-999	n/a	n/a	n/a	n/a	3	[0, 0, 0]	-999	PAL1	1	R1136N
420.933	1.0	926623	TEST_ORIENT	n/a	n/a	3	3	WORLD	MAP	WORLD	MAP	3	[0, 0, 0]	-999	PAL1	1	R1136N
421.933	0.001	927623	TEST_PROBE	n/a	wordpools/wordpool_EN.txt	3	3	WORLD	MAP	WORLD	MAP	3	[0, 0, 0]	-999	PAL1	1	R1136N
421.934	1.179	927624	REC_START	n/a	n/a	3	-999	n/a	MAP	n/a	n/a	3	[0, 0, 0]	-999	PAL1	1	R1136N
423.113	3.837	928803	REC_EVENT	1179	n/a	3	3	WORLD	MAP	WORLD	MAP	3	[0, 0, 0]	-999	PAL1	1	R1136N
426.95	0.017	932640	REC_END	n/a	n/a	3	-999	n/a	n/a	n/a	n/a	3	[0, 0, 0]	-999	PAL1	1	R1136N
426.967	0.868	932657	TEST_ORIENT	n/a	n/a	2	4	SNOW	HOSE	SNOW	HOSE	3	[0, 0, 0]	-999	PAL1	1	R1136N
427.835	0.001	933525	TEST_PROBE	n/a	wordpools/wordpool_EN.txt	2	4	SNOW	HOSE	SNOW	HOSE	3	[0, 0, 0]	-999	PAL1	1	R1136N
427.836	1.199	933526	REC_START	n/a	n/a	2	-999	n/a	HOSE	n/a	n/a	3	[0, 0, 0]	-999	PAL1	1	R1136N
429.035	3.825	934725	REC_EVENT	1199	n/a	2	4	SNOW	HOSE	SNOW	HOSE	3	[0, 0, 0]	-999	PAL1	1	R1136N
432.86	0.008	938549	REC_END	n/a	n/a	2	-999	n/a	n/a	n/a	n/a	3	[0, 0, 0]	-999	PAL1	1	R1136N
432.868	0.8	938557	TEST_ORIENT	n/a	n/a	1	5	SKUNK	n/a	SKUNK	ELF	3	[0, 0, 0]	-999	PAL1	1	R1136N
433.668	0.001	939357	TEST_PROBE	n/a	wordpools/wordpool_EN.txt	1	5	SKUNK	n/a	SKUNK	ELF	3	[0, 0, 0]	-999	PAL1	1	R1136N
433.669	4.876	939358	REC_START	n/a	n/a	1	-999	n/a	n/a	n/a	n/a	3	[0, 0, 0]	-999	PAL1	1	R1136N
438.545	0.141	944234	REC_EVENT	4876	n/a	1	5	SKUNK	<>	SKUNK	ELF	3	[0, 0, 0]	-999	PAL1	1	R1136N
438.686	0.016	944375	REC_END	n/a	n/a	1	-999	n/a	n/a	n/a	n/a	3	[0, 0, 0]	-999	PAL1	1	R1136N
438.702	1.051	944391	TEST_ORIENT	n/a	n/a	4	6	CRANE	n/a	CRANE	HOOF	3	[0, 0, 0]	-999	PAL1	1	R1136N
439.753	0.0	945442	TEST_PROBE	n/a	wordpools/wordpool_EN.txt	4	6	CRANE	n/a	CRANE	HOOF	3	[0, 0, 0]	-999	PAL1	1	R1136N
439.753	4.899	945442	REC_START	n/a	n/a	4	-999	n/a	n/a	n/a	n/a	3	[0, 0, 0]	-999	PAL1	1	R1136N
444.652	0.118	950341	REC_EVENT	4899	n/a	4	6	CRANE	<>	CRANE	HOOF	3	[0, 0, 0]	-999	PAL1	1	R1136N
444.77	3.888	950459	REC_END	n/a	n/a	4	-999	n/a	n/a	n/a	n/a	3	[0, 0, 0]	-999	PAL1	1	R1136N
448.658	10.449	954347	ENCODING_START	n/a	n/a	0	-999	n/a	n/a	n/a	n/a	4	[0, 0, 0]	-999	PAL1	1	R1136N
459.107	0.949	964795	STUDY_ORIENT	n/a	n/a	1	5	CROWN	n/a	DART	CROWN	4	[0, 0, 0]	-999	PAL1	1	R1136N
460.056	5.035	965744	STUDY_PAIR	n/a	wordpools/wordpool_EN.txt	1	5	CROWN	n/a	DART	CROWN	4	[0, 0, 0]	-999	PAL1	1	R1136N
465.091	0.917	970779	STUDY_ORIENT	n/a	n/a	2	4	VINE	n/a	ROOM	VINE	4	[0, 0, 0]	-999	PAL1	1	R1136N
466.008	5.034	971696	STUDY_PAIR	n/a	wordpools/wordpool_EN.txt	2	4	VINE	n/a	ROOM	VINE	4	[0, 0, 0]	-999	PAL1	1	R1136N
471.042	0.833	976729	STUDY_ORIENT	n/a	n/a	3	3	CHEEK	DUCK	CHEEK	DUCK	4	[0, 0, 0]	-999	PAL1	1	R1136N
471.875	5.035	977562	STUDY_PAIR	n/a	wordpools/wordpool_EN.txt	3	3	CHEEK	DUCK	CHEEK	DUCK	4	[0, 0, 0]	-999	PAL1	1	R1136N
476.91	0.982	982597	STUDY_ORIENT	n/a	n/a	4	2	BOY	WHALE	WHALE	BOY	4	[0, 0, 0]	-999	PAL1	1	R1136N
477.892	5.035	983579	STUDY_PAIR	n/a	wordpools/wordpool_EN.txt	4	2	BOY	WHALE	WHALE	BOY	4	[0, 0, 0]	-999	PAL1	1	R1136N
482.927	0.8	988614	STUDY_ORIENT	n/a	n/a	5	1	BADGE	n/a	SKY	BADGE	4	[0, 0, 0]	-999	PAL1	1	R1136N
483.727	5.034	989414	STUDY_PAIR	n/a	wordpools/wordpool_EN.txt	5	1	BADGE	n/a	SKY	BADGE	4	[0, 0, 0]	-999	PAL1	1	R1136N
488.761	0.9	994448	STUDY_ORIENT	n/a	n/a	6	6	WAVE	n/a	EAR	WAVE	4	[0, 0, 0]	-999	PAL1	1	R1136N
489.661	4.018	995348	STUDY_PAIR	n/a	wordpools/wordpool_EN.txt	6	6	WAVE	n/a	EAR	WAVE	4	[0, 0, 0]	-999	PAL1	1	R1136N
493.679	0.999	999365	START	n/a	n/a	-999	-999	n/a	n/a	n/a	n/a	4	[-999, -999, -999]	-999	PAL1	1	R1136N
494.678	0.017	1000364	MATH_START	n/a	n/a	-999	-999	n/a	n/a	n/a	n/a	4	[0, 0, 0]	-999	PAL1	1	R1136N
494.695	3.284	1000381	PROB	3251	n/a	-999	-999	n/a	n/a	n/a	n/a	4	[5, 5, 2]	12	PAL1	1	R1136N
497.979	3.434	1003665	PROB	3414	n/a	-999	-999	n/a	n/a	n/a	n/a	4	[3, 5, 7]	15	PAL1	1	R1136N
501.413	3.084	1007099	PROB	3061	n/a	-999	-999	n/a	n/a	n/a	n/a	4	[2, 7, 3]	12	PAL1	1	R1136N
504.497	3.435	1010183	PROB	3409	n/a	-999	-999	n/a	n/a	n/a	n/a	4	[2, 9, 5]	16	PAL1	1	R1136N
507.932	3.216	1013618	PROB	3190	n/a	-999	-999	n/a	n/a	n/a	n/a	4	[9, 7, 5]	21	PAL1	1	R1136N
511.148	1.984	1016833	PROB	1949	n/a	-999	-999	n/a	n/a	n/a	n/a	4	[2, 4, 8]	14	PAL1	1	R1136N
513.132	4.277	1018817	PROB	4277	n/a	-999	-999	n/a	n/a	n/a	n/a	4	[4, 8, 6]	18	PAL1	1	R1136N
517.409	0.008	1023094	STOP	n/a	n/a	-999	-999	n/a	n/a	n/a	n/a	4	[-999, -999, -999]	-999	PAL1	1	R1136N
517.417	0.0	1023102	MATH_END	n/a	n/a	-999	-999	n/a	n/a	n/a	n/a	4	[0, 0, 0]	-999	PAL1	1	R1136N
517.417	0.015	1023102	TEST_START	n/a	n/a	-999	-999	n/a	n/a	n/a	n/a	4	[0, 0, 0]	-999	PAL1	1	R1136N
517.432	1.001	1023117	TEST_ORIENT	n/a	n/a	5	1	BADGE	n/a	SKY	BADGE	4	[0, 0, 0]	-999	PAL1	1	R1136N
518.433	0.0	1024118	TEST_PROBE	n/a	wordpools/wordpool_EN.txt	5	1	BADGE	n/a	SKY	BADGE	4	[0, 0, 0]	-999	PAL1	1	R1136N
518.433	4.852	1024118	REC_START	n/a	n/a	5	-999	n/a	n/a	n/a	n/a	4	[0, 0, 0]	-999	PAL1	1	R1136N
523.285	0.166	1028970	REC_EVENT	4852	n/a	5	1	BADGE	<>	SKY	BADGE	4	[0, 0, 0]	-999	PAL1	1	R1136N
523.451	0.016	1029136	REC_END	n/a	n/a	5	-999	n/a	n/a	n/a	n/a	4	[0, 0, 0]	-999	PAL1	1	R1136N
523.467	0.984	1029152	TEST_ORIENT	n/a	n/a	4	2	BOY	WHALE	WHALE	BOY	4	[0, 0, 0]	-999	PAL1	1	R1136N
524.451	0.0	1030136	REC_START	n/a	n/a	4	-999	n/a	WHALE	n/a	n/a	4	[0, 0, 0]	-999	PAL1	1	R1136N
524.451	1.255	1030136	TEST_PROBE	n/a	wordpools/wordpool_EN.txt	4	2	BOY	WHALE	WHALE	BOY	4	[0, 0, 0]	-999	PAL1	1	R1136N
525.706	3.762	1031391	REC_EVENT	1255	n/a	4	2	BOY	WHALE	WHALE	BOY	4	[0, 0, 0]	-999	PAL1	1	R1136N
529.468	0.016	1035152	REC_END	n/a	n/a	4	-999	n/a	n/a	n/a	n/a	4	[0, 0, 0]	-999	PAL1	1	R1136N
529.484	0.801	1035168	TEST_ORIENT	n/a	n/a	3	3	CHEEK	DUCK	CHEEK	DUCK	4	[0, 0, 0]	-999	PAL1	1	R1136N
530.285	0.0	1035969	TEST_PROBE	n/a	wordpools/wordpool_EN.txt	3	3	CHEEK	DUCK	CHEEK	DUCK	4	[0, 0, 0]	-999	PAL1	1	R1136N
530.285	1.801	1035969	REC_START	n/a	n/a	3	-999	n/a	DUCK	n/a	n/a	4	[0, 0, 0]	-999	PAL1	1	R1136N
532.086	3.216	1037770	REC_EVENT	1801	n/a	3	3	CHEEK	DUCK	CHEEK	DUCK	4	[0, 0, 0]	-999	PAL1	1	R1136N
535.302	0.051	1040986	REC_END	n/a	n/a	3	-999	n/a	n/a	n/a	n/a	4	[0, 0, 0]	-999	PAL1	1	R1136N
535.353	1.016	1041037	TEST_ORIENT	n/a	n/a	2	4	VINE	n/a	ROOM	VINE	4	[0, 0, 0]	-999	PAL1	1	R1136N
536.369	0.001	1042053	TEST_PROBE	n/a	wordpools/wordpool_EN.txt	2	4	VINE	n/a	ROOM	VINE	4	[0, 0, 0]	-999	PAL1	1	R1136N
536.37	4.922	1042054	REC_START	n/a	n/a	2	-999	n/a	n/a	n/a	n/a	4	[0, 0, 0]	-999	PAL1	1	R1136N
541.292	0.094	1046976	REC_EVENT	4922	n/a	2	4	VINE	<>	ROOM	VINE	4	[0, 0, 0]	-999	PAL1	1	R1136N
541.386	0.017	1047070	REC_END	n/a	n/a	2	-999	n/a	n/a	n/a	n/a	4	[0, 0, 0]	-999	PAL1	1	R1136N
541.403	1.017	1047087	TEST_ORIENT	n/a	n/a	1	5	CROWN	n/a	DART	CROWN	4	[0, 0, 0]	-999	PAL1	1	R1136N
542.42	0.001	1048104	TEST_PROBE	n/a	wordpools/wordpool_EN.txt	1	5	CROWN	n/a	DART	CROWN	4	[0, 0, 0]	-999	PAL1	1	R1136N
542.421	4.852	1048105	REC_START	n/a	n/a	1	-999	n/a	n/a	n/a	n/a	4	[0, 0, 0]	-999	PAL1	1	R1136N
547.273	0.165	1052957	REC_EVENT	4852	n/a	1	5	CROWN	<>	DART	CROWN	4	[0, 0, 0]	-999	PAL1	1	R1136N
547.438	0.016	1053121	REC_END	n/a	n/a	1	-999	n/a	n/a	n/a	n/a	4	[0, 0, 0]	-999	PAL1	1	R1136N
547.454	1.001	1053137	TEST_ORIENT	n/a	n/a	6	6	WAVE	n/a	EAR	WAVE	4	[0, 0, 0]	-999	PAL1	1	R1136N
548.455	0.0	1054138	TEST_PROBE	n/a	wordpools/wordpool_EN.txt	6	6	WAVE	n/a	EAR	WAVE	4	[0, 0, 0]	-999	PAL1	1	R1136N
548.455	4.899	1054138	REC_START	n/a	n/a	6	-999	n/a	n/a	n/a	n/a	4	[0, 0, 0]	-999	PAL1	1	R1136N
553.354	0.118	1059037	REC_EVENT	4899	n/a	6	6	WAVE	<>	EAR	WAVE	4	[0, 0, 0]	-999	PAL1	1	R1136N
553.472	4.01	1059155	REC_END	n/a	n/a	6	-999	n/a	n/a	n/a	n/a	4	[0, 0, 0]	-999	PAL1	1	R1136N
557.482	10.443	1063165	ENCODING_START	n/a	n/a	0	-999	n/a	n/a	n/a	n/a	5	[0, 0, 0]	-999	PAL1	1	R1136N
567.925	0.816	1073607	STUDY_ORIENT	n/a	n/a	1	3	PRINCE	SINK	PRINCE	SINK	5	[0, 0, 0]	-999	PAL1	1	R1136N
568.741	5.035	1074423	STUDY_PAIR	n/a	wordpools/wordpool_EN.txt	1	3	PRINCE	SINK	PRINCE	SINK	5	[0, 0, 0]	-999	PAL1	1	R1136N
573.776	0.883	1079458	STUDY_ORIENT	n/a	n/a	2	6	BRANCH	n/a	BRANCH	DOLL	5	[0, 0, 0]	-999	PAL1	1	R1136N
574.659	5.034	1080341	STUDY_PAIR	n/a	wordpools/wordpool_EN.txt	2	6	BRANCH	n/a	BRANCH	DOLL	5	[0, 0, 0]	-999	PAL1	1	R1136N
579.693	0.85	1085375	STUDY_ORIENT	n/a	n/a	3	1	TREE	n/a	CAKE	TREE	5	[0, 0, 0]	-999	PAL1	1	R1136N
580.543	5.034	1086225	STUDY_PAIR	n/a	wordpools/wordpool_EN.txt	3	1	TREE	n/a	CAKE	TREE	5	[0, 0, 0]	-999	PAL1	1	R1136N
585.577	0.852	1091259	STUDY_ORIENT	n/a	n/a	4	2	SHEEP	n/a	SHIRT	SHEEP	5	[0, 0, 0]	-999	PAL1	1	R1136N
586.429	5.033	1092110	STUDY_PAIR	n/a	wordpools/wordpool_EN.txt	4	2	SHEEP	n/a	SHIRT	SHEEP	5	[0, 0, 0]	-999	PAL1	1	R1136N
591.462	0.817	1097143	STUDY_ORIENT	n/a	n/a	5	5	BATH	FARM	FARM	BATH	5	[0, 0, 0]	-999	PAL1	1	R1136N
592.279	5.034	1097960	STUDY_PAIR	n/a	wordpools/wordpool_EN.txt	5	5	BATH	FARM	FARM	BATH	5	[0, 0, 0]	-999	PAL1	1	R1136N
597.313	1.017	1102994	STUDY_ORIENT	n/a	n/a	6	4	FLUTE	n/a	FLUTE	FRUIT	5	[0, 0, 0]	-999	PAL1	1	R1136N
598.33	4.017	1104011	STUDY_PAIR	n/a	wordpools/wordpool_EN.txt	6	4	FLUTE	n/a	FLUTE	FRUIT	5	[0, 0, 0]	-999	PAL1	1	R1136N
602.347	1.0	1108028	START	n/a	n/a	-999	-999	n/a	n/a	n/a	n/a	5	[-999, -999, -999]	-999	PAL1	1	R1136N
603.347	0.017	1109028	MATH_START	n/a	n/a	-999	-999	n/a	n/a	n/a	n/a	5	[0, 0, 0]	-999	PAL1	1	R1136N
603.364	4.034	1109045	PROB	4006	n/a	-999	-999	n/a	n/a	n/a	n/a	5	[5, 1, 8]	14	PAL1	1	R1136N
607.398	2.417	1113078	PROB	2386	n/a	-999	-999	n/a	n/a	n/a	n/a	5	[1, 9, 9]	19	PAL1	1	R1136N
609.815	3.717	1115495	PROB	3691	n/a	-999	-999	n/a	n/a	n/a	n/a	5	[6, 3, 6]	15	PAL1	1	R1136N
613.532	2.702	1119212	PROB	2670	n/a	-999	-999	n/a	n/a	n/a	n/a	5	[3, 1, 8]	12	PAL1	1	R1136N
616.234	2.249	1121914	PROB	2224	n/a	-999	-999	n/a	n/a	n/a	n/a	5	[1, 9, 7]	17	PAL1	1	R1136N
618.483	4.806	1124163	PROB	4806	n/a	-999	-999	n/a	n/a	n/a	n/a	5	[7, 2, 9]	18	PAL1	1	R1136N
623.289	0.012	1128969	STOP	n/a	n/a	-999	-999	n/a	n/a	n/a	n/a	5	[-999, -999, -999]	-999	PAL1	1	R1136N
623.301	0.0	1128981	MATH_END	n/a	n/a	-999	-999	n/a	n/a	n/a	n/a	5	[0, 0, 0]	-999	PAL1	1	R1136N
623.301	0.016	1128981	TEST_START	n/a	n/a	-999	-999	n/a	n/a	n/a	n/a	5	[0, 0, 0]	-999	PAL1	1	R1136N
623.317	1.034	1128997	TEST_ORIENT	n/a	n/a	3	1	TREE	n/a	CAKE	TREE	5	[0, 0, 0]	-999	PAL1	1	R1136N
624.351	0.001	1130030	TEST_PROBE	n/a	wordpools/wordpool_EN.txt	3	1	TREE	n/a	CAKE	TREE	5	[0, 0, 0]	-999	PAL1	1	R1136N
624.352	4.829	1130031	REC_START	n/a	n/a	3	-999	n/a	n/a	n/a	n/a	5	[0, 0, 0]	-999	PAL1	1	R1136N
629.181	0.187	1134860	REC_EVENT	4829	n/a	3	1	TREE	<>	CAKE	TREE	5	[0, 0, 0]	-999	PAL1	1	R1136N
629.368	0.017	1135047	REC_END	n/a	n/a	3	-999	n/a	n/a	n/a	n/a	5	[0, 0, 0]	-999	PAL1	1	R1136N
629.385	0.967	1135064	TEST_ORIENT	n/a	n/a	4	2	SHEEP	n/a	SHIRT	SHEEP	5	[0, 0, 0]	-999	PAL1	1	R1136N
630.352	0.001	1136031	TEST_PROBE	n/a	wordpools/wordpool_EN.txt	4	2	SHEEP	n/a	SHIRT	SHEEP	5	[0, 0, 0]	-999	PAL1	1	R1136N
630.353	4.922	1136032	REC_START	n/a	n/a	4	-999	n/a	n/a	n/a	n/a	5	[0, 0, 0]	-999	PAL1	1	R1136N
635.275	0.102	1140954	REC_EVENT	4922	n/a	4	2	SHEEP	<>	SHIRT	SHEEP	5	[0, 0, 0]	-999	PAL1	1	R1136N
635.377	0.009	1141056	REC_END	n/a	n/a	4	-999	n/a	n/a	n/a	n/a	5	[0, 0, 0]	-999	PAL1	1	R1136N
635.386	0.884	1141065	TEST_ORIENT	n/a	n/a	1	3	PRINCE	SINK	PRINCE	SINK	5	[0, 0, 0]	-999	PAL1	1	R1136N
636.27	0.001	1141949	TEST_PROBE	n/a	wordpools/wordpool_EN.txt	1	3	PRINCE	SINK	PRINCE	SINK	5	[0, 0, 0]	-999	PAL1	1	R1136N
636.271	4.181	1141950	REC_START	n/a	n/a	1	-999	n/a	SINK	n/a	n/a	5	[0, 0, 0]	-999	PAL1	1	R1136N
640.452	0.843	1146131	REC_EVENT	4181	n/a	1	3	PRINCE	SINK	PRINCE	SINK	5	[0, 0, 0]	-999	PAL1	1	R1136N
641.295	0.009	1146974	REC_END	n/a	n/a	1	-999	n/a	n/a	n/a	n/a	5	[0, 0, 0]	-999	PAL1	1	R1136N
641.304	0.85	1146983	TEST_ORIENT	n/a	n/a	6	4	FLUTE	n/a	FLUTE	FRUIT	5	[0, 0, 0]	-999	PAL1	1	R1136N
642.154	0.0	1147833	TEST_PROBE	n/a	wordpools/wordpool_EN.txt	6	4	FLUTE	n/a	FLUTE	FRUIT	5	[0, 0, 0]	-999	PAL1	1	R1136N
642.154	4.945	1147833	REC_START	n/a	n/a	6	-999	n/a	n/a	n/a	n/a	5	[0, 0, 0]	-999	PAL1	1	R1136N
647.099	0.073	1152777	REC_EVENT	4945	n/a	6	4	FLUTE	<>	FLUTE	FRUIT	5	[0, 0, 0]	-999	PAL1	1	R1136N
647.172	0.016	1152850	REC_END	n/a	n/a	6	-999	n/a	n/a	n/a	n/a	5	[0, 0, 0]	-999	PAL1	1	R1136N
647.188	0.867	1152866	TEST_ORIENT	n/a	n/a	5	5	BATH	FARM	FARM	BATH	5	[0, 0, 0]	-999	PAL1	1	R1136N
648.055	0.0	1153733	TEST_PROBE	n/a	wordpools/wordpool_EN.txt	5	5	BATH	FARM	FARM	BATH	5	[0, 0, 0]	-999	PAL1	1	R1136N
648.055	1.274	1153733	REC_START	n/a	n/a	5	-999	n/a	FARM	n/a	n/a	5	[0, 0, 0]	-999	PAL1	1	R1136N
649.329	3.743	1155007	REC_EVENT	1274	n/a	5	5	BATH	FARM	FARM	BATH	5	[0, 0, 0]	-999	PAL1	1	R1136N
653.072	0.017	1158750	REC_END	n/a	n/a	5	-999	n/a	n/a	n/a	n/a	5	[0, 0, 0]	-999	PAL1	1	R1136N
653.089	0.967	1158767	TEST_ORIENT	n/a	n/a	2	6	BRANCH	n/a	BRANCH	DOLL	5	[0, 0, 0]	-999	PAL1	1	R1136N
654.056	0.0	1159734	TEST_PROBE	n/a	wordpools/wordpool_EN.txt	2	6	BRANCH	n/a	BRANCH	DOLL	5	[0, 0, 0]	-999	PAL1	1	R1136N
654.056	4.852	1159734	REC_START	n/a	n/a	2	-999	n/a	n/a	n/a	n/a	5	[0, 0, 0]	-999	PAL1	1	R1136N
658.908	0.165	1164586	REC_EVENT	4852	n/a	2	6	BRANCH	<>	BRANCH	DOLL	5	[0, 0, 0]	-999	PAL1	1	R1136N
659.073	4.369	1164751	REC_END	n/a	n/a	2	-999	n/a	n/a	n/a	n/a	5	[0, 0, 0]	-999	PAL1	1	R1136N
663.442	10.451	1169119	ENCODING_START	n/a	n/a	0	-999	n/a	n/a	n/a	n/a	6	[0, 0, 0]	-999	PAL1	1	R1136N
673.893	0.983	1179570	STUDY_ORIENT	n/a	n/a	1	5	SEA	n/a	STAIR	SEA	6	[0, 0, 0]	-999	PAL1	1	R1136N
674.876	5.035	1180553	STUDY_PAIR	n/a	wordpools/wordpool_EN.txt	1	5	SEA	n/a	STAIR	SEA	6	[0, 0, 0]	-999	PAL1	1	R1136N
679.911	0.867	1185588	STUDY_ORIENT	n/a	n/a	2	6	STONE	n/a	INK	STONE	6	[0, 0, 0]	-999	PAL1	1	R1136N
680.778	5.032	1186455	STUDY_PAIR	n/a	wordpools/wordpool_EN.txt	2	6	STONE	n/a	INK	STONE	6	[0, 0, 0]	-999	PAL1	1	R1136N
685.81	0.802	1191486	STUDY_ORIENT	n/a	n/a	3	1	TRAY	n/a	TRAY	JUICE	6	[0, 0, 0]	-999	PAL1	1	R1136N
686.612	5.034	1192288	STUDY_PAIR	n/a	wordpools/wordpool_EN.txt	3	1	TRAY	n/a	TRAY	JUICE	6	[0, 0, 0]	-999	PAL1	1	R1136N
691.646	0.9	1197322	STUDY_ORIENT	n/a	n/a	4	4	STRAW	n/a	CLOWN	STRAW	6	[0, 0, 0]	-999	PAL1	1	R1136N
692.546	5.034	1198222	STUDY_PAIR	n/a	wordpools/wordpool_EN.txt	4	4	STRAW	n/a	CLOWN	STRAW	6	[0, 0, 0]	-999	PAL1	1	R1136N
697.58	0.833	1203256	STUDY_ORIENT	n/a	n/a	5	3	SPRING	FILM	SPRING	FILM	6	[0, 0, 0]	-999	PAL1	1	R1136N
698.413	5.035	1204089	STUDY_PAIR	n/a	wordpools/wordpool_EN.txt	5	3	SPRING	FILM	SPRING	FILM	6	[0, 0, 0]	-999	PAL1	1	R1136N
703.448	0.883	1209123	STUDY_ORIENT	n/a	n/a	6	2	PEA	APE	PEA	APE	6	[0, 0, 0]	-999	PAL1	1	R1136N
704.331	4.018	1210006	STUDY_PAIR	n/a	wordpools/wordpool_EN.txt	6	2	PEA	APE	PEA	APE	6	[0, 0, 0]	-999	PAL1	1	R1136N
708.349	1.0	1214024	START	n/a	n/a	-999	-999	n/a	n/a	n/a	n/a	6	[-999, -999, -999]	-999	PAL1	1	R1136N
709.349	0.016	1215024	MATH_START	n/a	n/a	-999	-999	n/a	n/a	n/a	n/a	6	[0, 0, 0]	-999	PAL1	1	R1136N
709.365	4.101	1215040	PROB	4069	n/a	-999	-999	n/a	n/a	n/a	n/a	6	[2, 7, 9]	18	PAL1	1	R1136N
713.466	3.751	1219141	PROB	3727	n/a	-999	-999	n/a	n/a	n/a	n/a	6	[4, 5, 3]	12	PAL1	1	R1136N
717.217	4.3	1222892	PROB	4264	n/a	-999	-999	n/a	n/a	n/a	n/a	6	[9, 5, 7]	21	PAL1	1	R1136N
721.517	2.9	1227191	PROB	2868	n/a	-999	-999	n/a	n/a	n/a	n/a	6	[6, 5, 6]	17	PAL1	1	R1136N
724.417	2.134	1230091	PROB	2113	n/a	-999	-999	n/a	n/a	n/a	n/a	6	[6, 8, 2]	16	PAL1	1	R1136N
726.551	2.082	1232225	PROB	2082	n/a	-999	-999	n/a	n/a	n/a	n/a	6	[8, 8, 8]	24	PAL1	1	R1136N
728.633	0.019	1234307	STOP	n/a	n/a	-999	-999	n/a	n/a	n/a	n/a	6	[-999, -999, -999]	-999	PAL1	1	R1136N
728.652	0.0	1234326	MATH_END	n/a	n/a	-999	-999	n/a	n/a	n/a	n/a	6	[0, 0, 0]	-999	PAL1	1	R1136N
728.652	0.017	1234326	TEST_START	n/a	n/a	-999	-999	n/a	n/a	n/a	n/a	6	[0, 0, 0]	-999	PAL1	1	R1136N
728.669	0.9	1234343	TEST_ORIENT	n/a	n/a	3	1	TRAY	n/a	TRAY	JUICE	6	[0, 0, 0]	-999	PAL1	1	R1136N
729.569	0.001	1235243	TEST_PROBE	n/a	wordpools/wordpool_EN.txt	3	1	TRAY	n/a	TRAY	JUICE	6	[0, 0, 0]	-999	PAL1	1	R1136N
729.57	4.76	1235244	REC_START	n/a	n/a	3	-999	n/a	n/a	n/a	n/a	6	[0, 0, 0]	-999	PAL1	1	R1136N
734.33	0.256	1240004	REC_EVENT	4760	n/a	3	1	TRAY	<>	TRAY	JUICE	6	[0, 0, 0]	-999	PAL1	1	R1136N
734.586	0.017	1240260	REC_END	n/a	n/a	3	-999	n/a	n/a	n/a	n/a	6	[0, 0, 0]	-999	PAL1	1	R1136N
734.603	0.9	1240277	TEST_ORIENT	n/a	n/a	6	2	PEA	APE	PEA	APE	6	[0, 0, 0]	-999	PAL1	1	R1136N
735.503	0.001	1241177	TEST_PROBE	n/a	wordpools/wordpool_EN.txt	6	2	PEA	APE	PEA	APE	6	[0, 0, 0]	-999	PAL1	1	R1136N
735.504	1.383	1241178	REC_START	n/a	n/a	6	-999	n/a	APE	n/a	n/a	6	[0, 0, 0]	-999	PAL1	1	R1136N
736.887	3.642	1242561	REC_EVENT	1383	n/a	6	2	PEA	APE	PEA	APE	6	[0, 0, 0]	-999	PAL1	1	R1136N
740.529	0.008	1246202	REC_END	n/a	n/a	6	-999	n/a	n/a	n/a	n/a	6	[0, 0, 0]	-999	PAL1	1	R1136N
740.537	1.018	1246210	TEST_ORIENT	n/a	n/a	5	3	SPRING	FILM	SPRING	FILM	6	[0, 0, 0]	-999	PAL1	1	R1136N
741.555	0.0	1247228	TEST_PROBE	n/a	wordpools/wordpool_EN.txt	5	3	SPRING	FILM	SPRING	FILM	6	[0, 0, 0]	-999	PAL1	1	R1136N
741.555	2.013	1247228	REC_START	n/a	n/a	5	-999	n/a	FILM	n/a	n/a	6	[0, 0, 0]	-999	PAL1	1	R1136N
743.568	3.004	1249241	REC_EVENT	2013	n/a	5	3	SPRING	FILM	SPRING	FILM	6	[0, 0, 0]	-999	PAL1	1	R1136N
746.572	0.016	1252245	REC_END	n/a	n/a	5	-999	n/a	n/a	n/a	n/a	6	[0, 0, 0]	-999	PAL1	1	R1136N
746.588	0.817	1252261	TEST_ORIENT	n/a	n/a	4	4	STRAW	n/a	CLOWN	STRAW	6	[0, 0, 0]	-999	PAL1	1	R1136N
747.405	0.0	1253078	TEST_PROBE	n/a	wordpools/wordpool_EN.txt	4	4	STRAW	n/a	CLOWN	STRAW	6	[0, 0, 0]	-999	PAL1	1	R1136N
747.405	4.806	1253078	REC_START	n/a	n/a	4	-999	n/a	n/a	n/a	n/a	6	[0, 0, 0]	-999	PAL1	1	R1136N
752.211	0.211	1257884	REC_EVENT	4806	n/a	4	4	STRAW	<>	CLOWN	STRAW	6	[0, 0, 0]	-999	PAL1	1	R1136N
752.422	0.017	1258095	REC_END	n/a	n/a	4	-999	n/a	n/a	n/a	n/a	6	[0, 0, 0]	-999	PAL1	1	R1136N
752.439	0.9	1258112	TEST_ORIENT	n/a	n/a	1	5	SEA	n/a	STAIR	SEA	6	[0, 0, 0]	-999	PAL1	1	R1136N
753.339	0.001	1259012	TEST_PROBE	n/a	wordpools/wordpool_EN.txt	1	5	SEA	n/a	STAIR	SEA	6	[0, 0, 0]	-999	PAL1	1	R1136N
753.34	4.922	1259013	REC_START	n/a	n/a	1	-999	n/a	n/a	n/a	n/a	6	[0, 0, 0]	-999	PAL1	1	R1136N
758.262	0.103	1263935	REC_EVENT	4922	n/a	1	5	SEA	<>	STAIR	SEA	6	[0, 0, 0]	-999	PAL1	1	R1136N
758.365	0.008	1264038	REC_END	n/a	n/a	1	-999	n/a	n/a	n/a	n/a	6	[0, 0, 0]	-999	PAL1	1	R1136N
758.373	0.985	1264045	TEST_ORIENT	n/a	n/a	2	6	STONE	n/a	INK	STONE	6	[0, 0, 0]	-999	PAL1	1	R1136N
759.358	0.0	1265030	TEST_PROBE	n/a	wordpools/wordpool_EN.txt	2	6	STONE	n/a	INK	STONE	6	[0, 0, 0]	-999	PAL1	1	R1136N
759.358	4.899	1265030	REC_START	n/a	n/a	2	-999	n/a	n/a	n/a	n/a	6	[0, 0, 0]	-999	PAL1	1	R1136N
764.257	0.118	1269929	REC_EVENT	4899	n/a	2	6	STONE	<>	INK	STONE	6	[0, 0, 0]	-999	PAL1	1	R1136N
764.375	1.587	1270047	REC_END	n/a	n/a	2	-999	n/a	n/a	n/a	n/a	6	[0, 0, 0]	-999	PAL1	1	R1136N
765.962	10.448	1271634	ENCODING_START	n/a	n/a	0	-999	n/a	n/a	n/a	n/a	7	[0, 0, 0]	-999	PAL1	1	R1136N
776.41	0.817	1282082	STUDY_ORIENT	n/a	n/a	1	3	WEED	n/a	WEED	BAND	7	[0, 0, 0]	-999	PAL1	1	R1136N
777.227	5.034	1282899	STUDY_PAIR	n/a	wordpools/wordpool_EN.txt	1	3	WEED	n/a	WEED	BAND	7	[0, 0, 0]	-999	PAL1	1	R1136N
782.261	0.934	1287932	STUDY_ORIENT	n/a	n/a	2	6	CAR	n/a	CAR	PIN	7	[0, 0, 0]	-999	PAL1	1	R1136N
783.195	5.033	1288866	STUDY_PAIR	n/a	wordpools/wordpool_EN.txt	2	6	CAR	n/a	CAR	PIN	7	[0, 0, 0]	-999	PAL1	1	R1136N
788.228	0.884	1293899	STUDY_ORIENT	n/a	n/a	3	5	HAND	n/a	POND	HAND	7	[0, 0, 0]	-999	PAL1	1	R1136N
789.112	5.034	1294783	STUDY_PAIR	n/a	wordpools/wordpool_EN.txt	3	5	HAND	n/a	POND	HAND	7	[0, 0, 0]	-999	PAL1	1	R1136N
794.146	0.8	1299817	STUDY_ORIENT	n/a	n/a	4	4	TIE	PIN	SMILE	TIE	7	[0, 0, 0]	-999	PAL1	1	R1136N
794.946	5.035	1300617	STUDY_PAIR	n/a	wordpools/wordpool_EN.txt	4	4	TIE	PIN	SMILE	TIE	7	[0, 0, 0]	-999	PAL1	1	R1136N
799.981	0.883	1305651	STUDY_ORIENT	n/a	n/a	5	1	BAG	n/a	STEM	BAG	7	[0, 0, 0]	-999	PAL1	1	R1136N
800.864	5.034	1306534	STUDY_PAIR	n/a	wordpools/wordpool_EN.txt	5	1	BAG	n/a	STEM	BAG	7	[0, 0, 0]	-999	PAL1	1	R1136N
805.898	0.783	1311568	STUDY_ORIENT	n/a	n/a	6	2	PARK	n/a	PIE	PARK	7	[0, 0, 0]	-999	PAL1	1	R1136N
806.681	4.019	1312351	STUDY_PAIR	n/a	wordpools/wordpool_EN.txt	6	2	PARK	n/a	PIE	PARK	7	[0, 0, 0]	-999	PAL1	1	R1136N
810.7	0.999	1316370	START	n/a	n/a	-999	-999	n/a	n/a	n/a	n/a	7	[-999, -999, -999]	-999	PAL1	1	R1136N
811.699	0.017	1317369	MATH_START	n/a	n/a	-999	-999	n/a	n/a	n/a	n/a	7	[0, 0, 0]	-999	PAL1	1	R1136N
811.716	3.534	1317386	PROB	3502	n/a	-999	-999	n/a	n/a	n/a	n/a	7	[5, 5, 5]	15	PAL1	1	R1136N
815.25	5.251	1320920	PROB	5216	n/a	-999	-999	n/a	n/a	n/a	n/a	7	[5, 2, 7]	14	PAL1	1	R1136N
820.501	2.167	1326170	PROB	2140	n/a	-999	-999	n/a	n/a	n/a	n/a	7	[6, 1, 2]	9	PAL1	1	R1136N
822.668	2.284	1328337	PROB	2262	n/a	-999	-999	n/a	n/a	n/a	n/a	7	[5, 2, 1]	8	PAL1	1	R1136N
824.952	1.817	1330621	PROB	1785	n/a	-999	-999	n/a	n/a	n/a	n/a	7	[1, 1, 7]	9	PAL1	1	R1136N
826.769	2.916	1332438	PROB	2881	n/a	-999	-999	n/a	n/a	n/a	n/a	7	[8, 9, 3]	20	PAL1	1	R1136N
829.685	3.165	1335354	PROB	3165	n/a	-999	-999	n/a	n/a	n/a	n/a	7	[5, 9, 2]	16	PAL1	1	R1136N
832.85	0.003	1338519	STOP	n/a	n/a	-999	-999	n/a	n/a	n/a	n/a	7	[-999, -999, -999]	-999	PAL1	1	R1136N
832.853	0.0	1338522	MATH_END	n/a	n/a	-999	-999	n/a	n/a	n/a	n/a	7	[0, 0, 0]	-999	PAL1	1	R1136N
832.853	0.017	1338522	TEST_START	n/a	n/a	-999	-999	n/a	n/a	n/a	n/a	7	[0, 0, 0]	-999	PAL1	1	R1136N
832.87	0.916	1338539	TEST_ORIENT	n/a	n/a	5	1	BAG	n/a	STEM	BAG	7	[0, 0, 0]	-999	PAL1	1	R1136N
833.786	0.001	1339455	TEST_PROBE	n/a	wordpools/wordpool_EN.txt	5	1	BAG	n/a	STEM	BAG	7	[0, 0, 0]	-999	PAL1	1	R1136N
833.787	4.899	1339456	REC_START	n/a	n/a	5	-999	n/a	n/a	n/a	n/a	7	[0, 0, 0]	-999	PAL1	1	R1136N
838.686	0.116	1344354	REC_EVENT	4899	n/a	5	1	BAG	<>	STEM	BAG	7	[0, 0, 0]	-999	PAL1	1	R1136N
838.802	0.019	1344470	REC_END	n/a	n/a	5	-999	n/a	n/a	n/a	n/a	7	[0, 0, 0]	-999	PAL1	1	R1136N
838.821	0.849	1344489	TEST_ORIENT	n/a	n/a	6	2	PARK	n/a	PIE	PARK	7	[0, 0, 0]	-999	PAL1	1	R1136N
839.67	0.001	1345338	TEST_PROBE	n/a	wordpools/wordpool_EN.txt	6	2	PARK	n/a	PIE	PARK	7	[0, 0, 0]	-999	PAL1	1	R1136N
839.671	4.876	1345339	REC_START	n/a	n/a	6	-999	n/a	n/a	n/a	n/a	7	[0, 0, 0]	-999	PAL1	1	R1136N
844.547	0.149	1350215	REC_EVENT	4876	n/a	6	2	PARK	<>	PIE	PARK	7	[0, 0, 0]	-999	PAL1	1	R1136N
844.696	0.009	1350364	REC_END	n/a	n/a	6	-999	n/a	n/a	n/a	n/a	7	[0, 0, 0]	-999	PAL1	1	R1136N
844.705	0.9	1350373	TEST_ORIENT	n/a	n/a	1	3	WEED	n/a	WEED	BAND	7	[0, 0, 0]	-999	PAL1	1	R1136N
845.605	0.0	1351273	REC_START	n/a	n/a	1	-999	n/a	n/a	n/a	n/a	7	[0, 0, 0]	-999	PAL1	1	R1136N
845.605	4.876	1351273	TEST_PROBE	n/a	wordpools/wordpool_EN.txt	1	3	WEED	n/a	WEED	BAND	7	[0, 0, 0]	-999	PAL1	1	R1136N
850.481	0.15	1356149	REC_EVENT	4876	n/a	1	3	WEED	<>	WEED	BAND	7	[0, 0, 0]	-999	PAL1	1	R1136N
850.631	0.008	1356299	REC_END	n/a	n/a	1	-999	n/a	n/a	n/a	n/a	7	[0, 0, 0]	-999	PAL1	1	R1136N
850.639	0.967	1356307	TEST_ORIENT	n/a	n/a	4	4	TIE	PIN	SMILE	TIE	7	[0, 0, 0]	-999	PAL1	1	R1136N
851.606	0.0	1357274	TEST_PROBE	n/a	wordpools/wordpool_EN.txt	4	4	TIE	PIN	SMILE	TIE	7	[0, 0, 0]	-999	PAL1	1	R1136N
851.606	3.202	1357274	REC_START	n/a	n/a	4	-999	n/a	PIN	n/a	n/a	7	[0, 0, 0]	-999	PAL1	1	R1136N
854.808	1.815	1360475	REC_EVENT	3202	n/a	4	4	TIE	PIN	SMILE	TIE	7	[0, 0, 0]	-999	PAL1	1	R1136N
856.623	0.017	1362290	REC_END	n/a	n/a	4	-999	n/a	n/a	n/a	n/a	7	[0, 0, 0]	-999	PAL1	1	R1136N
856.64	0.867	1362307	TEST_ORIENT	n/a	n/a	3	5	HAND	n/a	POND	HAND	7	[0, 0, 0]	-999	PAL1	1	R1136N
857.507	0.0	1363174	TEST_PROBE	n/a	wordpools/wordpool_EN.txt	3	5	HAND	n/a	POND	HAND	7	[0, 0, 0]	-999	PAL1	1	R1136N
857.507	4.876	1363174	REC_START	n/a	n/a	3	-999	n/a	n/a	n/a	n/a	7	[0, 0, 0]	-999	PAL1	1	R1136N
862.383	0.141	1368050	REC_EVENT	4876	n/a	3	5	HAND	<>	POND	HAND	7	[0, 0, 0]	-999	PAL1	1	R1136N
862.524	0.018	1368191	REC_END	n/a	n/a	3	-999	n/a	n/a	n/a	n/a	7	[0, 0, 0]	-999	PAL1	1	R1136N
862.542	0.966	1368209	TEST_ORIENT	n/a	n/a	2	6	CAR	n/a	CAR	PIN	7	[0, 0, 0]	-999	PAL1	1	R1136N
863.508	0.0	1369175	TEST_PROBE	n/a	wordpools/wordpool_EN.txt	2	6	CAR	n/a	CAR	PIN	7	[0, 0, 0]	-999	PAL1	1	R1136N
863.508	4.922	1369175	REC_START	n/a	n/a	2	-999	n/a	n/a	n/a	n/a	7	[0, 0, 0]	-999	PAL1	1	R1136N
868.43	0.095	1374097	REC_EVENT	4922	n/a	2	6	CAR	<>	CAR	PIN	7	[0, 0, 0]	-999	PAL1	1	R1136N
868.525	3.284	1374192	REC_END	n/a	n/a	2	-999	n/a	n/a	n/a	n/a	7	[0, 0, 0]	-999	PAL1	1	R1136N
871.809	10.453	1377476	ENCODING_START	n/a	n/a	0	-999	n/a	n/a	n/a	n/a	8	[0, 0, 0]	-999	PAL1	1	R1136N
882.262	0.949	1387928	STUDY_ORIENT	n/a	n/a	1	5	MOTH	n/a	MOTH	HEART	8	[0, 0, 0]	-999	PAL1	1	R1136N
883.211	5.035	1388877	STUDY_PAIR	n/a	wordpools/wordpool_EN.txt	1	5	MOTH	n/a	MOTH	HEART	8	[0, 0, 0]	-999	PAL1	1	R1136N
888.246	0.95	1393912	STUDY_ORIENT	n/a	n/a	2	2	TOAD	n/a	BOMB	TOAD	8	[0, 0, 0]	-999	PAL1	1	R1136N
889.196	5.034	1394862	STUDY_PAIR	n/a	wordpools/wordpool_EN.txt	2	2	TOAD	n/a	BOMB	TOAD	8	[0, 0, 0]	-999	PAL1	1	R1136N
894.23	1.0	1399895	STUDY_ORIENT	n/a	n/a	3	1	DRUM	n/a	POOL	DRUM	8	[0, 0, 0]	-999	PAL1	1	R1136N
895.23	5.035	1400895	STUDY_PAIR	n/a	wordpools/wordpool_EN.txt	3	1	DRUM	n/a	POOL	DRUM	8	[0, 0, 0]	-999	PAL1	1	R1136N
900.265	0.983	1405930	STUDY_ORIENT	n/a	n/a	4	4	BREAD	LAKE	BREAD	LAKE	8	[0, 0, 0]	-999	PAL1	1	R1136N
901.248	5.034	1406913	STUDY_PAIR	n/a	wordpools/wordpool_EN.txt	4	4	BREAD	LAKE	BREAD	LAKE	8	[0, 0, 0]	-999	PAL1	1	R1136N
906.282	0.783	1411947	STUDY_ORIENT	n/a	n/a	5	3	SOAP	n/a	PANTS	SOAP	8	[0, 0, 0]	-999	PAL1	1	R1136N
907.065	5.035	1412730	STUDY_PAIR	n/a	wordpools/wordpool_EN.txt	5	3	SOAP	n/a	PANTS	SOAP	8	[0, 0, 0]	-999	PAL1	1	R1136N
912.1	0.933	1417764	STUDY_ORIENT	n/a	n/a	6	6	SOCK	n/a	CART	SOCK	8	[0, 0, 0]	-999	PAL1	1	R1136N
913.033	4.018	1418697	STUDY_PAIR	n/a	wordpools/wordpool_EN.txt	6	6	SOCK	n/a	CART	SOCK	8	[0, 0, 0]	-999	PAL1	1	R1136N
917.051	1.0	1422715	START	n/a	n/a	-999	-999	n/a	n/a	n/a	n/a	8	[-999, -999, -999]	-999	PAL1	1	R1136N
918.051	0.017	1423715	MATH_START	n/a	n/a	-999	-999	n/a	n/a	n/a	n/a	8	[0, 0, 0]	-999	PAL1	1	R1136N
918.068	4.033	1423732	PROB	3998	n/a	-999	-999	n/a	n/a	n/a	n/a	8	[1, 4, 2]	7	PAL1	1	R1136N
922.101	4.401	1427765	PROB	4373	n/a	-999	-999	n/a	n/a	n/a	n/a	8	[7, 7, 5]	19	PAL1	1	R1136N
926.502	2.483	1432166	PROB	2460	n/a	-999	-999	n/a	n/a	n/a	n/a	8	[7, 7, 4]	18	PAL1	1	R1136N
928.985	5.201	1434649	PROB	5169	n/a	-999	-999	n/a	n/a	n/a	n/a	8	[5, 9, 2]	15	PAL1	1	R1136N
934.186	4.471	1439849	PROB	4471	n/a	-999	-999	n/a	n/a	n/a	n/a	8	[7, 8, 8]	23	PAL1	1	R1136N
938.657	0.014	1444320	STOP	n/a	n/a	-999	-999	n/a	n/a	n/a	n/a	8	[-999, -999, -999]	-999	PAL1	1	R1136N
938.671	0.0	1444334	MATH_END	n/a	n/a	-999	-999	n/a	n/a	n/a	n/a	8	[0, 0, 0]	-999	PAL1	1	R1136N
938.671	0.016	1444334	TEST_START	n/a	n/a	-999	-999	n/a	n/a	n/a	n/a	8	[0, 0, 0]	-999	PAL1	1	R1136N
938.687	0.834	1444350	TEST_ORIENT	n/a	n/a	3	1	DRUM	n/a	POOL	DRUM	8	[0, 0, 0]	-999	PAL1	1	R1136N
939.521	0.0	1445184	REC_START	n/a	n/a	3	-999	n/a	n/a	n/a	n/a	8	[0, 0, 0]	-999	PAL1	1	R1136N
939.521	4.922	1445184	TEST_PROBE	n/a	wordpools/wordpool_EN.txt	3	1	DRUM	n/a	POOL	DRUM	8	[0, 0, 0]	-999	PAL1	1	R1136N
944.443	0.095	1450106	REC_EVENT	4922	n/a	3	1	DRUM	<>	POOL	DRUM	8	[0, 0, 0]	-999	PAL1	1	R1136N
944.538	0.018	1450201	REC_END	n/a	n/a	3	-999	n/a	n/a	n/a	n/a	8	[0, 0, 0]	-999	PAL1	1	R1136N
944.556	0.8	1450219	TEST_ORIENT	n/a	n/a	2	2	TOAD	n/a	BOMB	TOAD	8	[0, 0, 0]	-999	PAL1	1	R1136N
945.356	0.0	1451019	TEST_PROBE	n/a	wordpools/wordpool_EN.txt	2	2	TOAD	n/a	BOMB	TOAD	8	[0, 0, 0]	-999	PAL1	1	R1136N
945.356	4.876	1451019	REC_START	n/a	n/a	2	-999	n/a	n/a	n/a	n/a	8	[0, 0, 0]	-999	PAL1	1	R1136N
950.232	0.14	1455894	REC_EVENT	4876	n/a	2	2	TOAD	<>	BOMB	TOAD	8	[0, 0, 0]	-999	PAL1	1	R1136N
950.372	0.018	1456034	REC_END	n/a	n/a	2	-999	n/a	n/a	n/a	n/a	8	[0, 0, 0]	-999	PAL1	1	R1136N
950.39	0.817	1456052	TEST_ORIENT	n/a	n/a	5	3	SOAP	n/a	PANTS	SOAP	8	[0, 0, 0]	-999	PAL1	1	R1136N
951.207	0.0	1456869	TEST_PROBE	n/a	wordpools/wordpool_EN.txt	5	3	SOAP	n/a	PANTS	SOAP	8	[0, 0, 0]	-999	PAL1	1	R1136N
951.207	4.919	1456869	REC_START	n/a	n/a	5	-999	n/a	n/a	n/a	n/a	8	[0, 0, 0]	-999	PAL1	1	R1136N
956.126	0.098	1461788	REC_EVENT	4919	n/a	5	3	SOAP	<>	PANTS	SOAP	8	[0, 0, 0]	-999	PAL1	1	R1136N
956.224	0.017	1461886	REC_END	n/a	n/a	5	-999	n/a	n/a	n/a	n/a	8	[0, 0, 0]	-999	PAL1	1	R1136N
956.241	0.85	1461903	TEST_ORIENT	n/a	n/a	4	4	BREAD	LAKE	BREAD	LAKE	8	[0, 0, 0]	-999	PAL1	1	R1136N
957.091	0.0	1462753	TEST_PROBE	n/a	wordpools/wordpool_EN.txt	4	4	BREAD	LAKE	BREAD	LAKE	8	[0, 0, 0]	-999	PAL1	1	R1136N
957.091	2.569	1462753	REC_START	n/a	n/a	4	-999	n/a	LAKE	n/a	n/a	8	[0, 0, 0]	-999	PAL1	1	R1136N
959.66	2.448	1465322	REC_EVENT	2569	n/a	4	4	BREAD	LAKE	BREAD	LAKE	8	[0, 0, 0]	-999	PAL1	1	R1136N
962.108	0.016	1467770	REC_END	n/a	n/a	4	-999	n/a	n/a	n/a	n/a	8	[0, 0, 0]	-999	PAL1	1	R1136N
962.124	0.934	1467786	TEST_ORIENT	n/a	n/a	1	5	MOTH	n/a	MOTH	HEART	8	[0, 0, 0]	-999	PAL1	1	R1136N
963.058	0.001	1468720	TEST_PROBE	n/a	wordpools/wordpool_EN.txt	1	5	MOTH	n/a	MOTH	HEART	8	[0, 0, 0]	-999	PAL1	1	R1136N
963.059	4.852	1468721	REC_START	n/a	n/a	1	-999	n/a	n/a	n/a	n/a	8	[0, 0, 0]	-999	PAL1	1	R1136N
967.911	0.172	1473573	REC_EVENT	4852	n/a	1	5	MOTH	<>	MOTH	HEART	8	[0, 0, 0]	-999	PAL1	1	R1136N
968.083	0.009	1473745	REC_END	n/a	n/a	1	-999	n/a	n/a	n/a	n/a	8	[0, 0, 0]	-999	PAL1	1	R1136N
968.092	0.934	1473754	TEST_ORIENT	n/a	n/a	6	6	SOCK	n/a	CART	SOCK	8	[0, 0, 0]	-999	PAL1	1	R1136N
969.026	0.0	1474688	TEST_PROBE	n/a	wordpools/wordpool_EN.txt	6	6	SOCK	n/a	CART	SOCK	8	[0, 0, 0]	-999	PAL1	1	R1136N
969.026	4.852	1474688	REC_START	n/a	n/a	6	-999	n/a	n/a	n/a	n/a	8	[0, 0, 0]	-999	PAL1	1	R1136N
973.878	0.173	1479539	REC_EVENT	4852	n/a	6	6	SOCK	<>	CART	SOCK	8	[0, 0, 0]	-999	PAL1	1	R1136N
974.051	1.615	1479712	REC_END	n/a	n/a	6	-999	n/a	n/a	n/a	n/a	8	[0, 0, 0]	-999	PAL1	1	R1136N
975.666	10.446	1481327	ENCODING_START	n/a	n/a	0	-999	n/a	n/a	n/a	n/a	9	[0, 0, 0]	-999	PAL1	1	R1136N
986.112	0.9	1491773	STUDY_ORIENT	n/a	n/a	1	3	JEEP	STICK	JEEP	STICK	9	[0, 0, 0]	-999	PAL1	1	R1136N
987.012	5.034	1492673	STUDY_PAIR	n/a	wordpools/wordpool_EN.txt	1	3	JEEP	STICK	JEEP	STICK	9	[0, 0, 0]	-999	PAL1	1	R1136N
992.046	0.968	1497706	STUDY_ORIENT	n/a	n/a	2	6	HOOK	CAGE	LEG	HOOK	9	[0, 0, 0]	-999	PAL1	1	R1136N
993.014	5.033	1498674	STUDY_PAIR	n/a	wordpools/wordpool_EN.txt	2	6	HOOK	CAGE	LEG	HOOK	9	[0, 0, 0]	-999	PAL1	1	R1136N
998.047	0.934	1503707	STUDY_ORIENT	n/a	n/a	3	1	CHAIR	n/a	CHAIR	CLAY	9	[0, 0, 0]	-999	PAL1	1	R1136N
998.981	5.035	1504641	STUDY_PAIR	n/a	wordpools/wordpool_EN.txt	3	1	CHAIR	n/a	CHAIR	CLAY	9	[0, 0, 0]	-999	PAL1	1	R1136N
1004.016	0.916	1509676	STUDY_ORIENT	n/a	n/a	4	4	HOLE	OAK	HOLE	OAK	9	[0, 0, 0]	-999	PAL1	1	R1136N
1004.932	5.035	1510592	STUDY_PAIR	n/a	wordpools/wordpool_EN.txt	4	4	HOLE	OAK	HOLE	OAK	9	[0, 0, 0]	-999	PAL1	1	R1136N
1009.967	0.883	1515626	STUDY_ORIENT	n/a	n/a	5	5	TOOTH	n/a	FOG	TOOTH	9	[0, 0, 0]	-999	PAL1	1	R1136N
1010.85	5.034	1516509	STUDY_PAIR	n/a	wordpools/wordpool_EN.txt	5	5	TOOTH	n/a	FOG	TOOTH	9	[0, 0, 0]	-999	PAL1	1	R1136N
1015.884	0.783	1521543	STUDY_ORIENT	n/a	n/a	6	2	SALT	n/a	SALT	CAGE	9	[0, 0, 0]	-999	PAL1	1	R1136N
1016.667	4.018	1522326	STUDY_PAIR	n/a	wordpools/wordpool_EN.txt	6	2	SALT	n/a	SALT	CAGE	9	[0, 0, 0]	-999	PAL1	1	R1136N
1020.685	0.999	1526344	START	n/a	n/a	-999	-999	n/a	n/a	n/a	n/a	9	[-999, -999, -999]	-999	PAL1	1	R1136N
1021.684	0.017	1527343	MATH_START	n/a	n/a	-999	-999	n/a	n/a	n/a	n/a	9	[0, 0, 0]	-999	PAL1	1	R1136N
1021.701	4.918	1527360	PROB	4892	n/a	-999	-999	n/a	n/a	n/a	n/a	9	[6, 7, 6]	19	PAL1	1	R1136N
1026.619	3.8	1532278	PROB	3774	n/a	-999	-999	n/a	n/a	n/a	n/a	9	[4, 5, 7]	16	PAL1	1	R1136N
1030.419	2.351	1536077	PROB	2319	n/a	-999	-999	n/a	n/a	n/a	n/a	9	[9, 7, 1]	17	PAL1	1	R1136N
1032.77	2.95	1538428	PROB	2919	n/a	-999	-999	n/a	n/a	n/a	n/a	9	[8, 4, 1]	13	PAL1	1	R1136N
1035.72	2.317	1541378	PROB	2297	n/a	-999	-999	n/a	n/a	n/a	n/a	9	[9, 3, 7]	19	PAL1	1	R1136N
1038.037	2.101	1543695	PROB	2068	n/a	-999	-999	n/a	n/a	n/a	n/a	9	[4, 6, 4]	14	PAL1	1	R1136N
1040.138	3.688	1545796	PROB	3688	n/a	-999	-999	n/a	n/a	n/a	n/a	9	[8, 3, 8]	19	PAL1	1	R1136N
1043.826	0.013	1549484	STOP	n/a	n/a	-999	-999	n/a	n/a	n/a	n/a	9	[-999, -999, -999]	-999	PAL1	1	R1136N
1043.839	0.0	1549497	MATH_END	n/a	n/a	-999	-999	n/a	n/a	n/a	n/a	9	[0, 0, 0]	-999	PAL1	1	R1136N
1043.839	0.017	1549497	TEST_START	n/a	n/a	-999	-999	n/a	n/a	n/a	n/a	9	[0, 0, 0]	-999	PAL1	1	R1136N
1043.856	1.033	1549514	TEST_ORIENT	n/a	n/a	3	1	CHAIR	n/a	CHAIR	CLAY	9	[0, 0, 0]	-999	PAL1	1	R1136N
1044.889	0.001	1550547	TEST_PROBE	n/a	wordpools/wordpool_EN.txt	3	1	CHAIR	n/a	CHAIR	CLAY	9	[0, 0, 0]	-999	PAL1	1	R1136N
1044.89	4.899	1550548	REC_START	n/a	n/a	3	-999	n/a	n/a	n/a	n/a	9	[0, 0, 0]	-999	PAL1	1	R1136N
1049.789	0.126	1555446	REC_EVENT	4899	n/a	3	1	CHAIR	<>	CHAIR	CLAY	9	[0, 0, 0]	-999	PAL1	1	R1136N
1049.915	0.008	1555572	REC_END	n/a	n/a	3	-999	n/a	n/a	n/a	n/a	9	[0, 0, 0]	-999	PAL1	1	R1136N
1049.923	0.882	1555580	TEST_ORIENT	n/a	n/a	6	2	SALT	n/a	SALT	CAGE	9	[0, 0, 0]	-999	PAL1	1	R1136N
1050.805	0.001	1556462	TEST_PROBE	n/a	wordpools/wordpool_EN.txt	6	2	SALT	n/a	SALT	CAGE	9	[0, 0, 0]	-999	PAL1	1	R1136N
1050.806	4.852	1556463	REC_START	n/a	n/a	6	-999	n/a	n/a	n/a	n/a	9	[0, 0, 0]	-999	PAL1	1	R1136N
1055.658	0.165	1561315	REC_EVENT	4852	n/a	6	2	SALT	<>	SALT	CAGE	9	[0, 0, 0]	-999	PAL1	1	R1136N
1055.823	0.017	1561480	REC_END	n/a	n/a	6	-999	n/a	n/a	n/a	n/a	9	[0, 0, 0]	-999	PAL1	1	R1136N
1055.84	0.851	1561497	TEST_ORIENT	n/a	n/a	1	3	JEEP	STICK	JEEP	STICK	9	[0, 0, 0]	-999	PAL1	1	R1136N
1056.691	0.001	1562348	TEST_PROBE	n/a	wordpools/wordpool_EN.txt	1	3	JEEP	STICK	JEEP	STICK	9	[0, 0, 0]	-999	PAL1	1	R1136N
1056.692	1.35	1562349	REC_START	n/a	n/a	1	-999	n/a	STICK	n/a	n/a	9	[0, 0, 0]	-999	PAL1	1	R1136N
1058.042	3.666	1563699	REC_EVENT	1350	n/a	1	3	JEEP	STICK	JEEP	STICK	9	[0, 0, 0]	-999	PAL1	1	R1136N
1061.708	0.017	1567365	REC_END	n/a	n/a	1	-999	n/a	n/a	n/a	n/a	9	[0, 0, 0]	-999	PAL1	1	R1136N
1061.725	0.817	1567382	TEST_ORIENT	n/a	n/a	4	4	HOLE	OAK	HOLE	OAK	9	[0, 0, 0]	-999	PAL1	1	R1136N
1062.542	0.001	1568199	TEST_PROBE	n/a	wordpools/wordpool_EN.txt	4	4	HOLE	OAK	HOLE	OAK	9	[0, 0, 0]	-999	PAL1	1	R1136N
1062.543	1.314	1568200	REC_START	n/a	n/a	4	-999	n/a	OAK	n/a	n/a	9	[0, 0, 0]	-999	PAL1	1	R1136N
1063.857	3.71	1569514	REC_EVENT	1314	n/a	4	4	HOLE	OAK	HOLE	OAK	9	[0, 0, 0]	-999	PAL1	1	R1136N
1067.567	0.009	1573223	REC_END	n/a	n/a	4	-999	n/a	n/a	n/a	n/a	9	[0, 0, 0]	-999	PAL1	1	R1136N
1067.576	1.017	1573232	TEST_ORIENT	n/a	n/a	5	5	TOOTH	n/a	FOG	TOOTH	9	[0, 0, 0]	-999	PAL1	1	R1136N
1068.593	0.001	1574249	TEST_PROBE	n/a	wordpools/wordpool_EN.txt	5	5	TOOTH	n/a	FOG	TOOTH	9	[0, 0, 0]	-999	PAL1	1	R1136N
1068.594	4.876	1574250	REC_START	n/a	n/a	5	-999	n/a	n/a	n/a	n/a	9	[0, 0, 0]	-999	PAL1	1	R1136N
1073.47	0.148	1579126	REC_EVENT	4876	n/a	5	5	TOOTH	<>	FOG	TOOTH	9	[0, 0, 0]	-999	PAL1	1	R1136N
1073.618	0.009	1579274	REC_END	n/a	n/a	5	-999	n/a	n/a	n/a	n/a	9	[0, 0, 0]	-999	PAL1	1	R1136N
1073.627	0.917	1579283	TEST_ORIENT	n/a	n/a	2	6	HOOK	CAGE	LEG	HOOK	9	[0, 0, 0]	-999	PAL1	1	R1136N
1074.544	0.001	1580200	TEST_PROBE	n/a	wordpools/wordpool_EN.txt	2	6	HOOK	CAGE	LEG	HOOK	9	[0, 0, 0]	-999	PAL1	1	R1136N
1074.545	3.495	1580201	REC_START	n/a	n/a	2	-999	n/a	CAGE	n/a	n/a	9	[0, 0, 0]	-999	PAL1	1	R1136N
1078.04	1.529	1583696	REC_EVENT	3495	n/a	2	6	HOOK	CAGE	LEG	HOOK	9	[0, 0, 0]	-999	PAL1	1	R1136N
1079.569	1.881	1585225	REC_END	n/a	n/a	2	-999	n/a	n/a	n/a	n/a	9	[0, 0, 0]	-999	PAL1	1	R1136N
1081.45	10.447	1587106	ENCODING_START	n/a	n/a	0	-999	n/a	n/a	n/a	n/a	10	[0, 0, 0]	-999	PAL1	1	R1136N
1091.897	1.0	1597552	STUDY_ORIENT	n/a	n/a	1	5	OWL	WOLF	OWL	WOLF	10	[0, 0, 0]	-999	PAL1	1	R1136N
1092.897	5.034	1598552	STUDY_PAIR	n/a	wordpools/wordpool_EN.txt	1	5	OWL	WOLF	OWL	WOLF	10	[0, 0, 0]	-999	PAL1	1	R1136N
1097.931	1.017	1603586	STUDY_ORIENT	n/a	n/a	2	2	THREAD	n/a	THREAD	BOOK	10	[0, 0, 0]	-999	PAL1	1	R1136N
1098.948	5.034	1604603	STUDY_PAIR	n/a	wordpools/wordpool_EN.txt	2	2	THREAD	n/a	THREAD	BOOK	10	[0, 0, 0]	-999	PAL1	1	R1136N
1103.982	0.934	1609636	STUDY_ORIENT	n/a	n/a	3	1	HORN	n/a	BEAK	HORN	10	[0, 0, 0]	-999	PAL1	1	R1136N
1104.916	5.034	1610570	STUDY_PAIR	n/a	wordpools/wordpool_EN.txt	3	1	HORN	n/a	BEAK	HORN	10	[0, 0, 0]	-999	PAL1	1	R1136N
1109.95	1.0	1615604	STUDY_ORIENT	n/a	n/a	4	6	JAR	n/a	JAR	RIB	10	[0, 0, 0]	-999	PAL1	1	R1136N
1110.95	5.034	1616604	STUDY_PAIR	n/a	wordpools/wordpool_EN.txt	4	6	JAR	n/a	JAR	RIB	10	[0, 0, 0]	-999	PAL1	1	R1136N
1115.984	0.9	1621638	STUDY_ORIENT	n/a	n/a	5	3	CHALK	GOLD	GOLD	CHALK	10	[0, 0, 0]	-999	PAL1	1	R1136N
1116.884	5.034	1622538	STUDY_PAIR	n/a	wordpools/wordpool_EN.txt	5	3	CHALK	GOLD	GOLD	CHALK	10	[0, 0, 0]	-999	PAL1	1	R1136N
1121.918	0.817	1627572	STUDY_ORIENT	n/a	n/a	6	4	TRUCK	n/a	GEESE	TRUCK	10	[0, 0, 0]	-999	PAL1	1	R1136N
1122.735	4.018	1628389	STUDY_PAIR	n/a	wordpools/wordpool_EN.txt	6	4	TRUCK	n/a	GEESE	TRUCK	10	[0, 0, 0]	-999	PAL1	1	R1136N
1126.753	1.0	1632406	START	n/a	n/a	-999	-999	n/a	n/a	n/a	n/a	10	[-999, -999, -999]	-999	PAL1	1	R1136N
1127.753	0.016	1633406	MATH_START	n/a	n/a	-999	-999	n/a	n/a	n/a	n/a	10	[0, 0, 0]	-999	PAL1	1	R1136N
1127.769	2.401	1633422	PROB	2377	n/a	-999	-999	n/a	n/a	n/a	n/a	10	[8, 8, 8]	24	PAL1	1	R1136N
1130.17	3.067	1635823	PROB	3031	n/a	-999	-999	n/a	n/a	n/a	n/a	10	[4, 7, 7]	18	PAL1	1	R1136N
1133.237	2.785	1638890	PROB	2749	n/a	-999	-999	n/a	n/a	n/a	n/a	10	[6, 5, 8]	19	PAL1	1	R1136N
1136.022	2.899	1641675	PROB	2875	n/a	-999	-999	n/a	n/a	n/a	n/a	10	[6, 6, 5]	17	PAL1	1	R1136N
1138.921	2.601	1644574	PROB	2568	n/a	-999	-999	n/a	n/a	n/a	n/a	10	[1, 6, 7]	14	PAL1	1	R1136N
1141.522	4.484	1647175	PROB	4456	n/a	-999	-999	n/a	n/a	n/a	n/a	10	[6, 7, 8]	21	PAL1	1	R1136N
1146.006	2.691	1651658	PROB	2691	n/a	-999	-999	n/a	n/a	n/a	n/a	10	[8, 9, 7]	24	PAL1	1	R1136N
1148.697	0.01	1654349	STOP	n/a	n/a	-999	-999	n/a	n/a	n/a	n/a	10	[-999, -999, -999]	-999	PAL1	1	R1136N
1148.707	0.0	1654359	MATH_END	n/a	n/a	-999	-999	n/a	n/a	n/a	n/a	10	[0, 0, 0]	-999	PAL1	1	R1136N
1148.707	0.016	1654359	TEST_START	n/a	n/a	-999	-999	n/a	n/a	n/a	n/a	10	[0, 0, 0]	-999	PAL1	1	R1136N
1148.723	0.883	1654375	TEST_ORIENT	n/a	n/a	3	1	HORN	n/a	BEAK	HORN	10	[0, 0, 0]	-999	PAL1	1	R1136N
1149.606	0.001	1655258	TEST_PROBE	n/a	wordpools/wordpool_EN.txt	3	1	HORN	n/a	BEAK	HORN	10	[0, 0, 0]	-999	PAL1	1	R1136N
1149.607	4.876	1655259	REC_START	n/a	n/a	3	-999	n/a	n/a	n/a	n/a	10	[0, 0, 0]	-999	PAL1	1	R1136N
1154.483	0.141	1660135	REC_EVENT	4876	n/a	3	1	HORN	<>	BEAK	HORN	10	[0, 0, 0]	-999	PAL1	1	R1136N
1154.624	0.016	1660276	REC_END	n/a	n/a	3	-999	n/a	n/a	n/a	n/a	10	[0, 0, 0]	-999	PAL1	1	R1136N
1154.64	0.817	1660292	TEST_ORIENT	n/a	n/a	2	2	THREAD	n/a	THREAD	BOOK	10	[0, 0, 0]	-999	PAL1	1	R1136N
1155.457	0.001	1661109	TEST_PROBE	n/a	wordpools/wordpool_EN.txt	2	2	THREAD	n/a	THREAD	BOOK	10	[0, 0, 0]	-999	PAL1	1	R1136N
1155.458	4.922	1661110	REC_START	n/a	n/a	2	-999	n/a	n/a	n/a	n/a	10	[0, 0, 0]	-999	PAL1	1	R1136N
1160.38	0.095	1666032	REC_EVENT	4922	n/a	2	2	THREAD	<>	THREAD	BOOK	10	[0, 0, 0]	-999	PAL1	1	R1136N
1160.475	0.017	1666127	REC_END	n/a	n/a	2	-999	n/a	n/a	n/a	n/a	10	[0, 0, 0]	-999	PAL1	1	R1136N
1160.492	0.85	1666144	TEST_ORIENT	n/a	n/a	5	3	CHALK	GOLD	GOLD	CHALK	10	[0, 0, 0]	-999	PAL1	1	R1136N
1161.342	0.0	1666993	TEST_PROBE	n/a	wordpools/wordpool_EN.txt	5	3	CHALK	GOLD	GOLD	CHALK	10	[0, 0, 0]	-999	PAL1	1	R1136N
1161.342	2.273	1666993	REC_START	n/a	n/a	5	-999	n/a	GOLD	n/a	n/a	10	[0, 0, 0]	-999	PAL1	1	R1136N
1163.615	2.744	1669266	REC_EVENT	2273	n/a	5	3	CHALK	GOLD	GOLD	CHALK	10	[0, 0, 0]	-999	PAL1	1	R1136N
1166.359	0.017	1672010	REC_END	n/a	n/a	5	-999	n/a	n/a	n/a	n/a	10	[0, 0, 0]	-999	PAL1	1	R1136N
1166.376	0.934	1672027	TEST_ORIENT	n/a	n/a	6	4	TRUCK	n/a	GEESE	TRUCK	10	[0, 0, 0]	-999	PAL1	1	R1136N
1167.31	0.0	1672961	TEST_PROBE	n/a	wordpools/wordpool_EN.txt	6	4	TRUCK	n/a	GEESE	TRUCK	10	[0, 0, 0]	-999	PAL1	1	R1136N
1167.31	4.922	1672961	REC_START	n/a	n/a	6	-999	n/a	n/a	n/a	n/a	10	[0, 0, 0]	-999	PAL1	1	R1136N
1172.232	0.095	1677883	REC_EVENT	4922	n/a	6	4	TRUCK	<>	GEESE	TRUCK	10	[0, 0, 0]	-999	PAL1	1	R1136N
1172.327	0.016	1677978	REC_END	n/a	n/a	6	-999	n/a	n/a	n/a	n/a	10	[0, 0, 0]	-999	PAL1	1	R1136N
1172.343	0.818	1677994	TEST_ORIENT	n/a	n/a	1	5	OWL	WOLF	OWL	WOLF	10	[0, 0, 0]	-999	PAL1	1	R1136N
1173.161	0.0	1678812	TEST_PROBE	n/a	wordpools/wordpool_EN.txt	1	5	OWL	WOLF	OWL	WOLF	10	[0, 0, 0]	-999	PAL1	1	R1136N
1173.161	1.116	1678812	REC_START	n/a	n/a	1	-999	n/a	WOLF	n/a	n/a	10	[0, 0, 0]	-999	PAL1	1	R1136N
1174.277	3.908	1679928	REC_EVENT	1116	n/a	1	5	OWL	WOLF	OWL	WOLF	10	[0, 0, 0]	-999	PAL1	1	R1136N
1178.185	0.009	1683836	REC_END	n/a	n/a	1	-999	n/a	n/a	n/a	n/a	10	[0, 0, 0]	-999	PAL1	1	R1136N
1178.194	1.002	1683845	TEST_ORIENT	n/a	n/a	4	6	JAR	n/a	JAR	RIB	10	[0, 0, 0]	-999	PAL1	1	R1136N
1179.196	0.0	1684847	REC_START	n/a	n/a	4	-999	n/a	n/a	n/a	n/a	10	[0, 0, 0]	-999	PAL1	1	R1136N
1179.196	4.876	1684847	TEST_PROBE	n/a	wordpools/wordpool_EN.txt	4	6	JAR	n/a	JAR	RIB	10	[0, 0, 0]	-999	PAL1	1	R1136N
1184.072	0.141	1689722	REC_EVENT	4876	n/a	4	6	JAR	<>	JAR	RIB	10	[0, 0, 0]	-999	PAL1	1	R1136N
1184.213	1.189	1689863	REC_END	n/a	n/a	4	-999	n/a	n/a	n/a	n/a	10	[0, 0, 0]	-999	PAL1	1	R1136N
1185.402	10.446	1691052	ENCODING_START	n/a	n/a	0	-999	n/a	n/a	n/a	n/a	11	[0, 0, 0]	-999	PAL1	1	R1136N
1195.848	0.85	1701498	STUDY_ORIENT	n/a	n/a	1	5	JUDGE	ROSE	ROSE	JUDGE	11	[0, 0, 0]	-999	PAL1	1	R1136N
1196.698	5.034	1702348	STUDY_PAIR	n/a	wordpools/wordpool_EN.txt	1	5	JUDGE	ROSE	ROSE	JUDGE	11	[0, 0, 0]	-999	PAL1	1	R1136N
1201.732	0.783	1707381	STUDY_ORIENT	n/a	n/a	2	6	MUG	n/a	SPONGE	MUG	11	[0, 0, 0]	-999	PAL1	1	R1136N
1202.515	5.034	1708164	STUDY_PAIR	n/a	wordpools/wordpool_EN.txt	2	6	MUG	n/a	SPONGE	MUG	11	[0, 0, 0]	-999	PAL1	1	R1136N
1207.549	1.017	1713198	STUDY_ORIENT	n/a	n/a	3	1	SOUP	n/a	SOUP	ZOO	11	[0, 0, 0]	-999	PAL1	1	R1136N
1208.566	5.034	1714215	STUDY_PAIR	n/a	wordpools/wordpool_EN.txt	3	1	SOUP	n/a	SOUP	ZOO	11	[0, 0, 0]	-999	PAL1	1	R1136N
1213.6	0.834	1719249	STUDY_ORIENT	n/a	n/a	4	2	BOX	TOE	TOE	BOX	11	[0, 0, 0]	-999	PAL1	1	R1136N
1214.434	5.034	1720083	STUDY_PAIR	n/a	wordpools/wordpool_EN.txt	4	2	BOX	TOE	TOE	BOX	11	[0, 0, 0]	-999	PAL1	1	R1136N
1219.468	0.834	1725116	STUDY_ORIENT	n/a	n/a	5	3	HOUSE	FLAG	FLAG	HOUSE	11	[0, 0, 0]	-999	PAL1	1	R1136N
1220.302	5.034	1725950	STUDY_PAIR	n/a	wordpools/wordpool_EN.txt	5	3	HOUSE	FLAG	FLAG	HOUSE	11	[0, 0, 0]	-999	PAL1	1	R1136N
1225.336	0.9	1730984	STUDY_ORIENT	n/a	n/a	6	4	CHIN	n/a	CHIN	FLOOR	11	[0, 0, 0]	-999	PAL1	1	R1136N
1226.236	4.018	1731884	STUDY_PAIR	n/a	wordpools/wordpool_EN.txt	6	4	CHIN	n/a	CHIN	FLOOR	11	[0, 0, 0]	-999	PAL1	1	R1136N
1230.254	0.999	1735902	START	n/a	n/a	-999	-999	n/a	n/a	n/a	n/a	11	[-999, -999, -999]	-999	PAL1	1	R1136N
1231.253	0.018	1736901	MATH_START	n/a	n/a	-999	-999	n/a	n/a	n/a	n/a	11	[0, 0, 0]	-999	PAL1	1	R1136N
1231.271	4.217	1736919	PROB	4195	n/a	-999	-999	n/a	n/a	n/a	n/a	11	[1, 7, 7]	15	PAL1	1	R1136N
1235.488	2.4	1741136	PROB	2378	n/a	-999	-999	n/a	n/a	n/a	n/a	11	[7, 5, 4]	16	PAL1	1	R1136N
1237.888	2.651	1743535	PROB	2625	n/a	-999	-999	n/a	n/a	n/a	n/a	11	[9, 4, 6]	19	PAL1	1	R1136N
1240.539	3.05	1746186	PROB	3014	n/a	-999	-999	n/a	n/a	n/a	n/a	11	[2, 4, 5]	11	PAL1	1	R1136N
1243.589	3.384	1749236	PROB	3348	n/a	-999	-999	n/a	n/a	n/a	n/a	11	[6, 7, 7]	20	PAL1	1	R1136N
1246.973	2.401	1752620	PROB	2373	n/a	-999	-999	n/a	n/a	n/a	n/a	11	[8, 5, 8]	21	PAL1	1	R1136N
1249.374	2.276	1755021	PROB	2276	n/a	-999	-999	n/a	n/a	n/a	n/a	11	[9, 6, 4]	19	PAL1	1	R1136N
1251.65	0.007	1757297	STOP	n/a	n/a	-999	-999	n/a	n/a	n/a	n/a	11	[-999, -999, -999]	-999	PAL1	1	R1136N
1251.657	0.0	1757304	TEST_START	n/a	n/a	-999	-999	n/a	n/a	n/a	n/a	11	[0, 0, 0]	-999	PAL1	1	R1136N
1251.657	0.017	1757304	MATH_END	n/a	n/a	-999	-999	n/a	n/a	n/a	n/a	11	[0, 0, 0]	-999	PAL1	1	R1136N
1251.674	0.884	1757321	TEST_ORIENT	n/a	n/a	3	1	SOUP	n/a	SOUP	ZOO	11	[0, 0, 0]	-999	PAL1	1	R1136N
1252.558	0.0	1758205	TEST_PROBE	n/a	wordpools/wordpool_EN.txt	3	1	SOUP	n/a	SOUP	ZOO	11	[0, 0, 0]	-999	PAL1	1	R1136N
1252.558	4.969	1758205	REC_START	n/a	n/a	3	-999	n/a	n/a	n/a	n/a	11	[0, 0, 0]	-999	PAL1	1	R1136N
1257.527	0.048	1763173	REC_EVENT	4969	n/a	3	1	SOUP	<>	SOUP	ZOO	11	[0, 0, 0]	-999	PAL1	1	R1136N
1257.575	0.016	1763221	REC_END	n/a	n/a	3	-999	n/a	n/a	n/a	n/a	11	[0, 0, 0]	-999	PAL1	1	R1136N
1257.591	0.934	1763237	TEST_ORIENT	n/a	n/a	4	2	BOX	TOE	TOE	BOX	11	[0, 0, 0]	-999	PAL1	1	R1136N
1258.525	0.001	1764171	TEST_PROBE	n/a	wordpools/wordpool_EN.txt	4	2	BOX	TOE	TOE	BOX	11	[0, 0, 0]	-999	PAL1	1	R1136N
1258.526	2.606	1764172	REC_START	n/a	n/a	4	-999	n/a	TOE	n/a	n/a	11	[0, 0, 0]	-999	PAL1	1	R1136N
1261.132	2.417	1766778	REC_EVENT	2606	n/a	4	2	BOX	TOE	TOE	BOX	11	[0, 0, 0]	-999	PAL1	1	R1136N
1263.549	0.01	1769195	REC_END	n/a	n/a	4	-999	n/a	n/a	n/a	n/a	11	[0, 0, 0]	-999	PAL1	1	R1136N
1263.559	0.95	1769205	TEST_ORIENT	n/a	n/a	5	3	HOUSE	FLAG	FLAG	HOUSE	11	[0, 0, 0]	-999	PAL1	1	R1136N
1264.509	0.001	1770155	TEST_PROBE	n/a	wordpools/wordpool_EN.txt	5	3	HOUSE	FLAG	FLAG	HOUSE	11	[0, 0, 0]	-999	PAL1	1	R1136N
1264.51	3.032	1770156	REC_START	n/a	n/a	5	-999	n/a	FLAG	n/a	n/a	11	[0, 0, 0]	-999	PAL1	1	R1136N
1267.542	1.993	1773188	REC_EVENT	3032	n/a	5	3	HOUSE	FLAG	FLAG	HOUSE	11	[0, 0, 0]	-999	PAL1	1	R1136N
1269.535	0.008	1775181	REC_END	n/a	n/a	5	-999	n/a	n/a	n/a	n/a	11	[0, 0, 0]	-999	PAL1	1	R1136N
1269.543	0.984	1775189	TEST_ORIENT	n/a	n/a	6	4	CHIN	n/a	CHIN	FLOOR	11	[0, 0, 0]	-999	PAL1	1	R1136N
1270.527	0.0	1776173	REC_START	n/a	n/a	6	-999	n/a	n/a	n/a	n/a	11	[0, 0, 0]	-999	PAL1	1	R1136N
1270.527	4.899	1776173	TEST_PROBE	n/a	wordpools/wordpool_EN.txt	6	4	CHIN	n/a	CHIN	FLOOR	11	[0, 0, 0]	-999	PAL1	1	R1136N
1275.426	0.118	1781072	REC_EVENT	4899	n/a	6	4	CHIN	<>	CHIN	FLOOR	11	[0, 0, 0]	-999	PAL1	1	R1136N
1275.544	0.017	1781190	REC_END	n/a	n/a	6	-999	n/a	n/a	n/a	n/a	11	[0, 0, 0]	-999	PAL1	1	R1136N
1275.561	0.901	1781207	TEST_ORIENT	n/a	n/a	1	5	JUDGE	ROSE	ROSE	JUDGE	11	[0, 0, 0]	-999	PAL1	1	R1136N
1276.462	0.0	1782107	TEST_PROBE	n/a	wordpools/wordpool_EN.txt	1	5	JUDGE	ROSE	ROSE	JUDGE	11	[0, 0, 0]	-999	PAL1	1	R1136N
1276.462	1.283	1782107	REC_START	n/a	n/a	1	-999	n/a	ROSE	n/a	n/a	11	[0, 0, 0]	-999	PAL1	1	R1136N
1277.745	3.734	1783390	REC_EVENT	1283	n/a	1	5	JUDGE	ROSE	ROSE	JUDGE	11	[0, 0, 0]	-999	PAL1	1	R1136N
1281.479	0.016	1787124	REC_END	n/a	n/a	1	-999	n/a	n/a	n/a	n/a	11	[0, 0, 0]	-999	PAL1	1	R1136N
1281.495	0.884	1787140	TEST_ORIENT	n/a	n/a	2	6	MUG	n/a	SPONGE	MUG	11	[0, 0, 0]	-999	PAL1	1	R1136N
1282.379	0.0	1788024	REC_START	n/a	n/a	2	-999	n/a	n/a	n/a	n/a	11	[0, 0, 0]	-999	PAL1	1	R1136N
1282.379	4.899	1788024	TEST_PROBE	n/a	wordpools/wordpool_EN.txt	2	6	MUG	n/a	SPONGE	MUG	11	[0, 0, 0]	-999	PAL1	1	R1136N
1287.278	0.118	1792923	REC_EVENT	4899	n/a	2	6	MUG	<>	SPONGE	MUG	11	[0, 0, 0]	-999	PAL1	1	R1136N
1287.396	1.646	1793041	REC_END	n/a	n/a	2	-999	n/a	n/a	n/a	n/a	11	[0, 0, 0]	-999	PAL1	1	R1136N
1289.042	10.44	1794687	ENCODING_START	n/a	n/a	0	-999	n/a	n/a	n/a	n/a	12	[0, 0, 0]	-999	PAL1	1	R1136N
1299.482	0.916	1805126	STUDY_ORIENT	n/a	n/a	1	1	SKI	PLANT	SKI	PLANT	12	[0, 0, 0]	-999	PAL1	1	R1136N
1300.398	5.035	1806042	STUDY_PAIR	n/a	wordpools/wordpool_EN.txt	1	1	SKI	PLANT	SKI	PLANT	12	[0, 0, 0]	-999	PAL1	1	R1136N
1305.433	0.816	1811077	STUDY_ORIENT	n/a	n/a	2	6	SNAIL	n/a	SNAIL	SUIT	12	[0, 0, 0]	-999	PAL1	1	R1136N
1306.249	5.035	1811893	STUDY_PAIR	n/a	wordpools/wordpool_EN.txt	2	6	SNAIL	n/a	SNAIL	SUIT	12	[0, 0, 0]	-999	PAL1	1	R1136N
1311.284	0.95	1816928	STUDY_ORIENT	n/a	n/a	3	5	HEN	WORM	WORM	HEN	12	[0, 0, 0]	-999	PAL1	1	R1136N
1312.234	5.034	1817878	STUDY_PAIR	n/a	wordpools/wordpool_EN.txt	3	5	HEN	WORM	WORM	HEN	12	[0, 0, 0]	-999	PAL1	1	R1136N
1317.268	0.784	1822911	STUDY_ORIENT	n/a	n/a	4	4	TEA	n/a	MULE	TEA	12	[0, 0, 0]	-999	PAL1	1	R1136N
1318.052	5.034	1823695	STUDY_PAIR	n/a	wordpools/wordpool_EN.txt	4	4	TEA	n/a	MULE	TEA	12	[0, 0, 0]	-999	PAL1	1	R1136N
1323.086	0.917	1828729	STUDY_ORIENT	n/a	n/a	5	3	GRAPE	n/a	TRAIN	GRAPE	12	[0, 0, 0]	-999	PAL1	1	R1136N
1324.003	5.034	1829646	STUDY_PAIR	n/a	wordpools/wordpool_EN.txt	5	3	GRAPE	n/a	TRAIN	GRAPE	12	[0, 0, 0]	-999	PAL1	1	R1136N
1329.037	0.95	1834680	STUDY_ORIENT	n/a	n/a	6	2	SIGN	n/a	SIGN	CLIFF	12	[0, 0, 0]	-999	PAL1	1	R1136N
1329.987	4.019	1835630	STUDY_PAIR	n/a	wordpools/wordpool_EN.txt	6	2	SIGN	n/a	SIGN	CLIFF	12	[0, 0, 0]	-999	PAL1	1	R1136N
1334.006	0.999	1839648	START	n/a	n/a	-999	-999	n/a	n/a	n/a	n/a	12	[-999, -999, -999]	-999	PAL1	1	R1136N
1335.005	0.016	1840647	MATH_START	n/a	n/a	-999	-999	n/a	n/a	n/a	n/a	12	[0, 0, 0]	-999	PAL1	1	R1136N
1335.021	4.484	1840663	PROB	4453	n/a	-999	-999	n/a	n/a	n/a	n/a	12	[5, 5, 9]	19	PAL1	1	R1136N
1339.505	2.851	1845147	PROB	2817	n/a	-999	-999	n/a	n/a	n/a	n/a	12	[1, 6, 7]	14	PAL1	1	R1136N
1342.356	2.967	1847998	PROB	2941	n/a	-999	-999	n/a	n/a	n/a	n/a	12	[4, 8, 5]	17	PAL1	1	R1136N
1345.323	3.134	1850965	PROB	3110	n/a	-999	-999	n/a	n/a	n/a	n/a	12	[6, 6, 3]	15	PAL1	1	R1136N
1348.457	4.0	1854099	PROB	3976	n/a	-999	-999	n/a	n/a	n/a	n/a	12	[7, 9, 5]	21	PAL1	1	R1136N
1352.457	2.873	1858099	PROB	2873	n/a	-999	-999	n/a	n/a	n/a	n/a	12	[3, 3, 9]	15	PAL1	1	R1136N
1355.33	0.011	1860971	STOP	n/a	n/a	-999	-999	n/a	n/a	n/a	n/a	12	[-999, -999, -999]	-999	PAL1	1	R1136N
1355.341	0.0	1860982	TEST_START	n/a	n/a	-999	-999	n/a	n/a	n/a	n/a	12	[0, 0, 0]	-999	PAL1	1	R1136N
1355.341	0.017	1860982	MATH_END	n/a	n/a	-999	-999	n/a	n/a	n/a	n/a	12	[0, 0, 0]	-999	PAL1	1	R1136N
1355.358	0.884	1860999	TEST_ORIENT	n/a	n/a	1	1	SKI	PLANT	SKI	PLANT	12	[0, 0, 0]	-999	PAL1	1	R1136N
1356.242	0.001	1861883	TEST_PROBE	n/a	wordpools/wordpool_EN.txt	1	1	SKI	PLANT	SKI	PLANT	12	[0, 0, 0]	-999	PAL1	1	R1136N
1356.243	1.809	1861884	REC_START	n/a	n/a	1	-999	n/a	PLANT	n/a	n/a	12	[0, 0, 0]	-999	PAL1	1	R1136N
1358.052	3.214	1863693	REC_EVENT	1809	n/a	1	1	SKI	PLANT	SKI	PLANT	12	[0, 0, 0]	-999	PAL1	1	R1136N
1361.266	0.01	1866907	REC_END	n/a	n/a	1	-999	n/a	n/a	n/a	n/a	12	[0, 0, 0]	-999	PAL1	1	R1136N
1361.276	0.849	1866917	TEST_ORIENT	n/a	n/a	6	2	SIGN	n/a	SIGN	CLIFF	12	[0, 0, 0]	-999	PAL1	1	R1136N
1362.125	0.001	1867766	TEST_PROBE	n/a	wordpools/wordpool_EN.txt	6	2	SIGN	n/a	SIGN	CLIFF	12	[0, 0, 0]	-999	PAL1	1	R1136N
1362.126	4.852	1867767	REC_START	n/a	n/a	6	-999	n/a	n/a	n/a	n/a	12	[0, 0, 0]	-999	PAL1	1	R1136N
1366.978	0.165	1872619	REC_EVENT	4852	n/a	6	2	SIGN	<>	SIGN	CLIFF	12	[0, 0, 0]	-999	PAL1	1	R1136N
1367.143	0.017	1872784	REC_END	n/a	n/a	6	-999	n/a	n/a	n/a	n/a	12	[0, 0, 0]	-999	PAL1	1	R1136N
1367.16	0.867	1872801	TEST_ORIENT	n/a	n/a	5	3	GRAPE	n/a	TRAIN	GRAPE	12	[0, 0, 0]	-999	PAL1	1	R1136N
1368.027	0.0	1873668	TEST_PROBE	n/a	wordpools/wordpool_EN.txt	5	3	GRAPE	n/a	TRAIN	GRAPE	12	[0, 0, 0]	-999	PAL1	1	R1136N
1368.027	4.876	1873668	REC_START	n/a	n/a	5	-999	n/a	n/a	n/a	n/a	12	[0, 0, 0]	-999	PAL1	1	R1136N
1372.903	0.141	1878543	REC_EVENT	4876	n/a	5	3	GRAPE	<>	TRAIN	GRAPE	12	[0, 0, 0]	-999	PAL1	1	R1136N
1373.044	0.017	1878684	REC_END	n/a	n/a	5	-999	n/a	n/a	n/a	n/a	12	[0, 0, 0]	-999	PAL1	1	R1136N
1373.061	0.85	1878701	TEST_ORIENT	n/a	n/a	4	4	TEA	n/a	MULE	TEA	12	[0, 0, 0]	-999	PAL1	1	R1136N
1373.911	0.001	1879551	TEST_PROBE	n/a	wordpools/wordpool_EN.txt	4	4	TEA	n/a	MULE	TEA	12	[0, 0, 0]	-999	PAL1	1	R1136N
1373.912	4.899	1879552	REC_START	n/a	n/a	4	-999	n/a	n/a	n/a	n/a	12	[0, 0, 0]	-999	PAL1	1	R1136N
1378.811	0.117	1884451	REC_EVENT	4899	n/a	4	4	TEA	<>	MULE	TEA	12	[0, 0, 0]	-999	PAL1	1	R1136N
1378.928	0.017	1884568	REC_END	n/a	n/a	4	-999	n/a	n/a	n/a	n/a	12	[0, 0, 0]	-999	PAL1	1	R1136N
1378.945	0.884	1884585	TEST_ORIENT	n/a	n/a	3	5	HEN	WORM	WORM	HEN	12	[0, 0, 0]	-999	PAL1	1	R1136N
1379.829	0.001	1885469	TEST_PROBE	n/a	wordpools/wordpool_EN.txt	3	5	HEN	WORM	WORM	HEN	12	[0, 0, 0]	-999	PAL1	1	R1136N
1379.83	1.457	1885470	REC_START	n/a	n/a	3	-999	n/a	WORM	n/a	n/a	12	[0, 0, 0]	-999	PAL1	1	R1136N
1381.287	3.559	1886927	REC_EVENT	1457	n/a	3	5	HEN	WORM	WORM	HEN	12	[0, 0, 0]	-999	PAL1	1	R1136N
1384.846	0.017	1890486	REC_END	n/a	n/a	3	-999	n/a	n/a	n/a	n/a	12	[0, 0, 0]	-999	PAL1	1	R1136N
1384.863	0.9	1890503	TEST_ORIENT	n/a	n/a	2	6	SNAIL	n/a	SNAIL	SUIT	12	[0, 0, 0]	-999	PAL1	1	R1136N
1385.763	0.001	1891403	TEST_PROBE	n/a	wordpools/wordpool_EN.txt	2	6	SNAIL	n/a	SNAIL	SUIT	12	[0, 0, 0]	-999	PAL1	1	R1136N
1385.764	4.899	1891404	REC_START	n/a	n/a	2	-999	n/a	n/a	n/a	n/a	12	[0, 0, 0]	-999	PAL1	1	R1136N
1390.663	0.124	1896303	REC_EVENT	4899	n/a	2	6	SNAIL	<>	SNAIL	SUIT	12	[0, 0, 0]	-999	PAL1	1	R1136N
1390.787	0.975	1896427	REC_END	n/a	n/a	2	-999	n/a	n/a	n/a	n/a	12	[0, 0, 0]	-999	PAL1	1	R1136N
1391.762	10.454	1897401	ENCODING_START	n/a	n/a	0	-999	n/a	n/a	n/a	n/a	13	[0, 0, 0]	-999	PAL1	1	R1136N
1402.216	0.801	1907855	STUDY_ORIENT	n/a	n/a	1	5	SLUSH	n/a	ARM	SLUSH	13	[0, 0, 0]	-999	PAL1	1	R1136N
1403.017	5.033	1908656	STUDY_PAIR	n/a	wordpools/wordpool_EN.txt	1	5	SLUSH	n/a	ARM	SLUSH	13	[0, 0, 0]	-999	PAL1	1	R1136N
1408.05	0.951	1913689	STUDY_ORIENT	n/a	n/a	2	4	ROPE	n/a	FOX	ROPE	13	[0, 0, 0]	-999	PAL1	1	R1136N
1409.001	5.034	1914640	STUDY_PAIR	n/a	wordpools/wordpool_EN.txt	2	4	ROPE	n/a	FOX	ROPE	13	[0, 0, 0]	-999	PAL1	1	R1136N
1414.035	1.0	1919673	STUDY_ORIENT	n/a	n/a	3	3	SPARK	n/a	SPARK	PLATE	13	[0, 0, 0]	-999	PAL1	1	R1136N
1415.035	5.034	1920673	STUDY_PAIR	n/a	wordpools/wordpool_EN.txt	3	3	SPARK	n/a	SPARK	PLATE	13	[0, 0, 0]	-999	PAL1	1	R1136N
1420.069	0.984	1925707	STUDY_ORIENT	n/a	n/a	4	6	SWAMP	n/a	SWAMP	SMOKE	13	[0, 0, 0]	-999	PAL1	1	R1136N
1421.053	5.033	1926691	STUDY_PAIR	n/a	wordpools/wordpool_EN.txt	4	6	SWAMP	n/a	SWAMP	SMOKE	13	[0, 0, 0]	-999	PAL1	1	R1136N
1426.086	0.851	1931724	STUDY_ORIENT	n/a	n/a	5	1	BEACH	n/a	BEACH	BUSH	13	[0, 0, 0]	-999	PAL1	1	R1136N
1426.937	5.034	1932575	STUDY_PAIR	n/a	wordpools/wordpool_EN.txt	5	1	BEACH	n/a	BEACH	BUSH	13	[0, 0, 0]	-999	PAL1	1	R1136N
1431.971	0.934	1937608	STUDY_ORIENT	n/a	n/a	6	2	NAIL	n/a	SWORD	NAIL	13	[0, 0, 0]	-999	PAL1	1	R1136N
1432.905	4.017	1938542	STUDY_PAIR	n/a	wordpools/wordpool_EN.txt	6	2	NAIL	n/a	SWORD	NAIL	13	[0, 0, 0]	-999	PAL1	1	R1136N
1436.922	0.999	1942559	START	n/a	n/a	-999	-999	n/a	n/a	n/a	n/a	13	[-999, -999, -999]	-999	PAL1	1	R1136N
1437.921	0.018	1943558	MATH_START	n/a	n/a	-999	-999	n/a	n/a	n/a	n/a	13	[0, 0, 0]	-999	PAL1	1	R1136N
1437.939	3.251	1943576	PROB	3215	n/a	-999	-999	n/a	n/a	n/a	n/a	13	[8, 1, 8]	17	PAL1	1	R1136N
1441.19	3.166	1946827	PROB	3132	n/a	-999	-999	n/a	n/a	n/a	n/a	13	[9, 1, 1]	11	PAL1	1	R1136N
1444.356	2.401	1949993	PROB	2373	n/a	-999	-999	n/a	n/a	n/a	n/a	13	[4, 9, 1]	14	PAL1	1	R1136N
1446.757	2.401	1952394	PROB	2373	n/a	-999	-999	n/a	n/a	n/a	n/a	13	[3, 2, 6]	11	PAL1	1	R1136N
1449.158	3.566	1954794	PROB	3531	n/a	-999	-999	n/a	n/a	n/a	n/a	13	[6, 2, 6]	14	PAL1	1	R1136N
1452.724	2.201	1958360	PROB	2173	n/a	-999	-999	n/a	n/a	n/a	n/a	13	[1, 2, 6]	9	PAL1	1	R1136N
1454.925	2.981	1960561	PROB	2981	n/a	-999	-999	n/a	n/a	n/a	n/a	13	[7, 2, 7]	16	PAL1	1	R1136N
1457.906	0.003	1963542	STOP	n/a	n/a	-999	-999	n/a	n/a	n/a	n/a	13	[-999, -999, -999]	-999	PAL1	1	R1136N
1457.909	0.0	1963545	MATH_END	n/a	n/a	-999	-999	n/a	n/a	n/a	n/a	13	[0, 0, 0]	-999	PAL1	1	R1136N
1457.909	0.017	1963545	TEST_START	n/a	n/a	-999	-999	n/a	n/a	n/a	n/a	13	[0, 0, 0]	-999	PAL1	1	R1136N
1457.926	0.95	1963562	TEST_ORIENT	n/a	n/a	5	1	BEACH	n/a	BEACH	BUSH	13	[0, 0, 0]	-999	PAL1	1	R1136N
1458.876	0.001	1964512	TEST_PROBE	n/a	wordpools/wordpool_EN.txt	5	1	BEACH	n/a	BEACH	BUSH	13	[0, 0, 0]	-999	PAL1	1	R1136N
1458.877	4.922	1964513	REC_START	n/a	n/a	5	-999	n/a	n/a	n/a	n/a	13	[0, 0, 0]	-999	PAL1	1	R1136N
1463.799	0.094	1969435	REC_EVENT	4922	n/a	5	1	BEACH	<>	BEACH	BUSH	13	[0, 0, 0]	-999	PAL1	1	R1136N
1463.893	0.017	1969529	REC_END	n/a	n/a	5	-999	n/a	n/a	n/a	n/a	13	[0, 0, 0]	-999	PAL1	1	R1136N
1463.91	0.899	1969546	TEST_ORIENT	n/a	n/a	6	2	NAIL	n/a	SWORD	NAIL	13	[0, 0, 0]	-999	PAL1	1	R1136N
1464.809	0.001	1970445	TEST_PROBE	n/a	wordpools/wordpool_EN.txt	6	2	NAIL	n/a	SWORD	NAIL	13	[0, 0, 0]	-999	PAL1	1	R1136N
1464.81	4.876	1970446	REC_START	n/a	n/a	6	-999	n/a	n/a	n/a	n/a	13	[0, 0, 0]	-999	PAL1	1	R1136N
1469.686	0.141	1975321	REC_EVENT	4876	n/a	6	2	NAIL	<>	SWORD	NAIL	13	[0, 0, 0]	-999	PAL1	1	R1136N
1469.827	0.017	1975462	REC_END	n/a	n/a	6	-999	n/a	n/a	n/a	n/a	13	[0, 0, 0]	-999	PAL1	1	R1136N
1469.844	0.95	1975479	TEST_ORIENT	n/a	n/a	3	3	SPARK	n/a	SPARK	PLATE	13	[0, 0, 0]	-999	PAL1	1	R1136N
1470.794	0.0	1976429	TEST_PROBE	n/a	wordpools/wordpool_EN.txt	3	3	SPARK	n/a	SPARK	PLATE	13	[0, 0, 0]	-999	PAL1	1	R1136N
1470.794	4.899	1976429	REC_START	n/a	n/a	3	-999	n/a	n/a	n/a	n/a	13	[0, 0, 0]	-999	PAL1	1	R1136N
1475.693	0.117	1981328	REC_EVENT	4899	n/a	3	3	SPARK	<>	SPARK	PLATE	13	[0, 0, 0]	-999	PAL1	1	R1136N
1475.81	0.018	1981445	REC_END	n/a	n/a	3	-999	n/a	n/a	n/a	n/a	13	[0, 0, 0]	-999	PAL1	1	R1136N
1475.828	0.934	1981463	TEST_ORIENT	n/a	n/a	2	4	ROPE	n/a	FOX	ROPE	13	[0, 0, 0]	-999	PAL1	1	R1136N
1476.762	0.001	1982397	TEST_PROBE	n/a	wordpools/wordpool_EN.txt	2	4	ROPE	n/a	FOX	ROPE	13	[0, 0, 0]	-999	PAL1	1	R1136N
1476.763	4.852	1982398	REC_START	n/a	n/a	2	-999	n/a	n/a	n/a	n/a	13	[0, 0, 0]	-999	PAL1	1	R1136N
1481.615	0.173	1987250	REC_EVENT	4852	n/a	2	4	ROPE	<>	FOX	ROPE	13	[0, 0, 0]	-999	PAL1	1	R1136N
1481.788	0.025	1987423	REC_END	n/a	n/a	2	-999	n/a	n/a	n/a	n/a	13	[0, 0, 0]	-999	PAL1	1	R1136N
1481.813	0.917	1987448	TEST_ORIENT	n/a	n/a	1	5	SLUSH	n/a	ARM	SLUSH	13	[0, 0, 0]	-999	PAL1	1	R1136N
1482.73	0.001	1988365	TEST_PROBE	n/a	wordpools/wordpool_EN.txt	1	5	SLUSH	n/a	ARM	SLUSH	13	[0, 0, 0]	-999	PAL1	1	R1136N
1482.731	4.899	1988366	REC_START	n/a	n/a	1	-999	n/a	n/a	n/a	n/a	13	[0, 0, 0]	-999	PAL1	1	R1136N
1487.63	0.117	1993264	REC_EVENT	4899	n/a	1	5	SLUSH	<>	ARM	SLUSH	13	[0, 0, 0]	-999	PAL1	1	R1136N
1487.747	0.017	1993381	REC_END	n/a	n/a	1	-999	n/a	n/a	n/a	n/a	13	[0, 0, 0]	-999	PAL1	1	R1136N
1487.764	0.816	1993398	TEST_ORIENT	n/a	n/a	4	6	SWAMP	n/a	SWAMP	SMOKE	13	[0, 0, 0]	-999	PAL1	1	R1136N
1488.58	0.001	1994214	TEST_PROBE	n/a	wordpools/wordpool_EN.txt	4	6	SWAMP	n/a	SWAMP	SMOKE	13	[0, 0, 0]	-999	PAL1	1	R1136N
1488.581	5.015	1994215	REC_START	n/a	n/a	4	-999	n/a	n/a	n/a	n/a	13	[0, 0, 0]	-999	PAL1	1	R1136N
1493.596	0.002	1999230	REC_EVENT	5015	n/a	4	6	SWAMP	<>	SWAMP	SMOKE	13	[0, 0, 0]	-999	PAL1	1	R1136N
1493.598	1.428	1999232	REC_END	n/a	n/a	4	-999	n/a	n/a	n/a	n/a	13	[0, 0, 0]	-999	PAL1	1	R1136N
1495.026	10.458	2000660	ENCODING_START	n/a	n/a	0	-999	n/a	n/a	n/a	n/a	14	[0, 0, 0]	-999	PAL1	1	R1136N
1505.484	0.933	2011118	STUDY_ORIENT	n/a	n/a	1	1	PET	n/a	PET	TEETH	14	[0, 0, 0]	-999	PAL1	1	R1136N
1506.417	5.034	2012050	STUDY_PAIR	n/a	wordpools/wordpool_EN.txt	1	1	PET	n/a	PET	TEETH	14	[0, 0, 0]	-999	PAL1	1	R1136N
1511.451	1.017	2017084	STUDY_ORIENT	n/a	n/a	2	2	MOUSE	n/a	SHARK	MOUSE	14	[0, 0, 0]	-999	PAL1	1	R1136N
1512.468	5.034	2018101	STUDY_PAIR	n/a	wordpools/wordpool_EN.txt	2	2	MOUSE	n/a	SHARK	MOUSE	14	[0, 0, 0]	-999	PAL1	1	R1136N
1517.502	1.017	2023135	STUDY_ORIENT	n/a	n/a	3	3	CORD	n/a	CORD	STEAK	14	[0, 0, 0]	-999	PAL1	1	R1136N
1518.519	5.034	2024152	STUDY_PAIR	n/a	wordpools/wordpool_EN.txt	3	3	CORD	n/a	CORD	STEAK	14	[0, 0, 0]	-999	PAL1	1	R1136N
1523.553	0.95	2029186	STUDY_ORIENT	n/a	n/a	4	6	CLOCK	LIP	CLOCK	LIP	14	[0, 0, 0]	-999	PAL1	1	R1136N
1524.503	5.035	2030136	STUDY_PAIR	n/a	wordpools/wordpool_EN.txt	4	6	CLOCK	LIP	CLOCK	LIP	14	[0, 0, 0]	-999	PAL1	1	R1136N
1529.538	0.817	2035170	STUDY_ORIENT	n/a	n/a	5	5	BENCH	n/a	HAWK	BENCH	14	[0, 0, 0]	-999	PAL1	1	R1136N
1530.355	5.033	2035987	STUDY_PAIR	n/a	wordpools/wordpool_EN.txt	5	5	BENCH	n/a	HAWK	BENCH	14	[0, 0, 0]	-999	PAL1	1	R1136N
1535.388	0.801	2041020	STUDY_ORIENT	n/a	n/a	6	4	EEL	n/a	EEL	BAT	14	[0, 0, 0]	-999	PAL1	1	R1136N
1536.189	4.018	2041821	STUDY_PAIR	n/a	wordpools/wordpool_EN.txt	6	4	EEL	n/a	EEL	BAT	14	[0, 0, 0]	-999	PAL1	1	R1136N
1540.207	0.999	2045839	START	n/a	n/a	-999	-999	n/a	n/a	n/a	n/a	14	[-999, -999, -999]	-999	PAL1	1	R1136N
1541.206	0.017	2046838	MATH_START	n/a	n/a	-999	-999	n/a	n/a	n/a	n/a	14	[0, 0, 0]	-999	PAL1	1	R1136N
1541.223	3.383	2046855	PROB	3363	n/a	-999	-999	n/a	n/a	n/a	n/a	14	[4, 2, 1]	7	PAL1	1	R1136N
1544.606	3.168	2050238	PROB	3140	n/a	-999	-999	n/a	n/a	n/a	n/a	14	[5, 3, 9]	17	PAL1	1	R1136N
1547.774	2.651	2053405	PROB	2619	n/a	-999	-999	n/a	n/a	n/a	n/a	14	[7, 2, 5]	14	PAL1	1	R1136N
1550.425	2.066	2056056	PROB	2040	n/a	-999	-999	n/a	n/a	n/a	n/a	14	[2, 2, 8]	12	PAL1	1	R1136N
1552.491	2.135	2058122	PROB	2103	n/a	-999	-999	n/a	n/a	n/a	n/a	14	[5, 3, 5]	13	PAL1	1	R1136N
1554.626	3.85	2060257	PROB	3824	n/a	-999	-999	n/a	n/a	n/a	n/a	14	[8, 7, 1]	16	PAL1	1	R1136N
1558.476	1.965	2064107	PROB	1965	n/a	-999	-999	n/a	n/a	n/a	n/a	14	[7, 2, 2]	11	PAL1	1	R1136N
1560.441	0.018	2066072	STOP	n/a	n/a	-999	-999	n/a	n/a	n/a	n/a	14	[-999, -999, -999]	-999	PAL1	1	R1136N
1560.459	0.0	2066090	MATH_END	n/a	n/a	-999	-999	n/a	n/a	n/a	n/a	14	[0, 0, 0]	-999	PAL1	1	R1136N
1560.459	0.017	2066090	TEST_START	n/a	n/a	-999	-999	n/a	n/a	n/a	n/a	14	[0, 0, 0]	-999	PAL1	1	R1136N
1560.476	1.017	2066107	TEST_ORIENT	n/a	n/a	1	1	PET	n/a	PET	TEETH	14	[0, 0, 0]	-999	PAL1	1	R1136N
1561.493	0.0	2067124	TEST_PROBE	n/a	wordpools/wordpool_EN.txt	1	1	PET	n/a	PET	TEETH	14	[0, 0, 0]	-999	PAL1	1	R1136N
1561.493	4.713	2067124	REC_START	n/a	n/a	1	-999	n/a	n/a	n/a	n/a	14	[0, 0, 0]	-999	PAL1	1	R1136N
1566.206	0.304	2071836	REC_EVENT	4713	n/a	1	1	PET	<>	PET	TEETH	14	[0, 0, 0]	-999	PAL1	1	R1136N
1566.51	0.017	2072140	REC_END	n/a	n/a	1	-999	n/a	n/a	n/a	n/a	14	[0, 0, 0]	-999	PAL1	1	R1136N
1566.527	0.85	2072157	TEST_ORIENT	n/a	n/a	2	2	MOUSE	n/a	SHARK	MOUSE	14	[0, 0, 0]	-999	PAL1	1	R1136N
1567.377	0.001	2073007	TEST_PROBE	n/a	wordpools/wordpool_EN.txt	2	2	MOUSE	n/a	SHARK	MOUSE	14	[0, 0, 0]	-999	PAL1	1	R1136N
1567.378	4.899	2073008	REC_START	n/a	n/a	2	-999	n/a	n/a	n/a	n/a	14	[0, 0, 0]	-999	PAL1	1	R1136N
1572.277	0.117	2077907	REC_EVENT	4899	n/a	2	2	MOUSE	<>	SHARK	MOUSE	14	[0, 0, 0]	-999	PAL1	1	R1136N
1572.394	0.018	2078024	REC_END	n/a	n/a	2	-999	n/a	n/a	n/a	n/a	14	[0, 0, 0]	-999	PAL1	1	R1136N
1572.412	0.833	2078042	TEST_ORIENT	n/a	n/a	3	3	CORD	n/a	CORD	STEAK	14	[0, 0, 0]	-999	PAL1	1	R1136N
1573.245	0.0	2078875	TEST_PROBE	n/a	wordpools/wordpool_EN.txt	3	3	CORD	n/a	CORD	STEAK	14	[0, 0, 0]	-999	PAL1	1	R1136N
1573.245	4.899	2078875	REC_START	n/a	n/a	3	-999	n/a	n/a	n/a	n/a	14	[0, 0, 0]	-999	PAL1	1	R1136N
1578.144	0.119	2083774	REC_EVENT	4899	n/a	3	3	CORD	<>	CORD	STEAK	14	[0, 0, 0]	-999	PAL1	1	R1136N
1578.263	0.016	2083893	REC_END	n/a	n/a	3	-999	n/a	n/a	n/a	n/a	14	[0, 0, 0]	-999	PAL1	1	R1136N
1578.279	0.967	2083909	TEST_ORIENT	n/a	n/a	6	4	EEL	n/a	EEL	BAT	14	[0, 0, 0]	-999	PAL1	1	R1136N
1579.246	0.001	2084876	TEST_PROBE	n/a	wordpools/wordpool_EN.txt	6	4	EEL	n/a	EEL	BAT	14	[0, 0, 0]	-999	PAL1	1	R1136N
1579.247	4.876	2084877	REC_START	n/a	n/a	6	-999	n/a	n/a	n/a	n/a	14	[0, 0, 0]	-999	PAL1	1	R1136N
1584.123	0.149	2089752	REC_EVENT	4876	n/a	6	4	EEL	<>	EEL	BAT	14	[0, 0, 0]	-999	PAL1	1	R1136N
1584.272	0.008	2089901	REC_END	n/a	n/a	6	-999	n/a	n/a	n/a	n/a	14	[0, 0, 0]	-999	PAL1	1	R1136N
1584.28	0.851	2089909	TEST_ORIENT	n/a	n/a	5	5	BENCH	n/a	HAWK	BENCH	14	[0, 0, 0]	-999	PAL1	1	R1136N
1585.131	0.001	2090760	TEST_PROBE	n/a	wordpools/wordpool_EN.txt	5	5	BENCH	n/a	HAWK	BENCH	14	[0, 0, 0]	-999	PAL1	1	R1136N
1585.132	4.829	2090761	REC_START	n/a	n/a	5	-999	n/a	n/a	n/a	n/a	14	[0, 0, 0]	-999	PAL1	1	R1136N
1589.961	0.186	2095590	REC_EVENT	4829	n/a	5	5	BENCH	<>	HAWK	BENCH	14	[0, 0, 0]	-999	PAL1	1	R1136N
1590.147	0.018	2095776	REC_END	n/a	n/a	5	-999	n/a	n/a	n/a	n/a	14	[0, 0, 0]	-999	PAL1	1	R1136N
1590.165	0.983	2095794	TEST_ORIENT	n/a	n/a	4	6	CLOCK	LIP	CLOCK	LIP	14	[0, 0, 0]	-999	PAL1	1	R1136N
1591.148	0.0	2096777	TEST_PROBE	n/a	wordpools/wordpool_EN.txt	4	6	CLOCK	LIP	CLOCK	LIP	14	[0, 0, 0]	-999	PAL1	1	R1136N
1591.148	3.747	2096777	REC_START	n/a	n/a	4	-999	n/a	LIP	n/a	n/a	14	[0, 0, 0]	-999	PAL1	1	R1136N
1594.895	1.271	2100524	REC_EVENT	3747	n/a	4	6	CLOCK	LIP	CLOCK	LIP	14	[0, 0, 0]	-999	PAL1	1	R1136N
1596.166	1.659	2101795	REC_END	n/a	n/a	4	-999	n/a	n/a	n/a	n/a	14	[0, 0, 0]	-999	PAL1	1	R1136N
1597.825	10.442	2103454	ENCODING_START	n/a	n/a	0	-999	n/a	n/a	n/a	n/a	15	[0, 0, 0]	-999	PAL1	1	R1136N
1608.267	0.934	2113895	STUDY_ORIENT	n/a	n/a	1	1	GLASS	n/a	GLASS	LAMB	15	[0, 0, 0]	-999	PAL1	1	R1136N
1609.201	5.034	2114829	STUDY_PAIR	n/a	wordpools/wordpool_EN.txt	1	1	GLASS	n/a	GLASS	LAMB	15	[0, 0, 0]	-999	PAL1	1	R1136N
1614.235	0.967	2119863	STUDY_ORIENT	n/a	n/a	2	6	ROCK	n/a	ROCK	STEAM	15	[0, 0, 0]	-999	PAL1	1	R1136N
1615.202	5.034	2120830	STUDY_PAIR	n/a	wordpools/wordpool_EN.txt	2	6	ROCK	n/a	ROCK	STEAM	15	[0, 0, 0]	-999	PAL1	1	R1136N
1620.236	0.967	2125864	STUDY_ORIENT	n/a	n/a	3	3	ROAD	n/a	CALF	ROAD	15	[0, 0, 0]	-999	PAL1	1	R1136N
1621.203	5.034	2126831	STUDY_PAIR	n/a	wordpools/wordpool_EN.txt	3	3	ROAD	n/a	CALF	ROAD	15	[0, 0, 0]	-999	PAL1	1	R1136N
1626.237	1.017	2131864	STUDY_ORIENT	n/a	n/a	4	4	CORN	n/a	DOOR	CORN	15	[0, 0, 0]	-999	PAL1	1	R1136N
1627.254	5.034	2132881	STUDY_PAIR	n/a	wordpools/wordpool_EN.txt	4	4	CORN	n/a	DOOR	CORN	15	[0, 0, 0]	-999	PAL1	1	R1136N
1632.288	0.901	2137915	STUDY_ORIENT	n/a	n/a	5	5	FROG	n/a	HAT	FROG	15	[0, 0, 0]	-999	PAL1	1	R1136N
1633.189	5.033	2138816	STUDY_PAIR	n/a	wordpools/wordpool_EN.txt	5	5	FROG	n/a	HAT	FROG	15	[0, 0, 0]	-999	PAL1	1	R1136N
1638.222	0.867	2143849	STUDY_ORIENT	n/a	n/a	6	2	SLIME	MUD	MUD	SLIME	15	[0, 0, 0]	-999	PAL1	1	R1136N
1639.089	4.018	2144716	STUDY_PAIR	n/a	wordpools/wordpool_EN.txt	6	2	SLIME	MUD	MUD	SLIME	15	[0, 0, 0]	-999	PAL1	1	R1136N
1643.107	0.999	2148733	START	n/a	n/a	-999	-999	n/a	n/a	n/a	n/a	15	[-999, -999, -999]	-999	PAL1	1	R1136N
1644.106	0.017	2149732	MATH_START	n/a	n/a	-999	-999	n/a	n/a	n/a	n/a	15	[0, 0, 0]	-999	PAL1	1	R1136N
1644.123	3.751	2149749	PROB	3727	n/a	-999	-999	n/a	n/a	n/a	n/a	15	[4, 1, 1]	6	PAL1	1	R1136N
1647.874	2.067	2153500	PROB	2032	n/a	-999	-999	n/a	n/a	n/a	n/a	15	[1, 4, 1]	6	PAL1	1	R1136N
1649.941	3.1	2155567	PROB	3077	n/a	-999	-999	n/a	n/a	n/a	n/a	15	[3, 5, 9]	17	PAL1	1	R1136N
1653.041	6.051	2158667	PROB	6025	n/a	-999	-999	n/a	n/a	n/a	n/a	15	[7, 8, 8]	23	PAL1	1	R1136N
1659.092	3.168	2164718	PROB	3142	n/a	-999	-999	n/a	n/a	n/a	n/a	15	[8, 1, 8]	17	PAL1	1	R1136N
1662.26	2.582	2167885	PROB	2582	n/a	-999	-999	n/a	n/a	n/a	n/a	15	[1, 8, 5]	14	PAL1	1	R1136N
1664.842	0.019	2170467	STOP	n/a	n/a	-999	-999	n/a	n/a	n/a	n/a	15	[-999, -999, -999]	-999	PAL1	1	R1136N
1664.861	0.0	2170486	MATH_END	n/a	n/a	-999	-999	n/a	n/a	n/a	n/a	15	[0, 0, 0]	-999	PAL1	1	R1136N
1664.861	0.016	2170486	TEST_START	n/a	n/a	-999	-999	n/a	n/a	n/a	n/a	15	[0, 0, 0]	-999	PAL1	1	R1136N
1664.877	0.867	2170502	TEST_ORIENT	n/a	n/a	1	1	GLASS	n/a	GLASS	LAMB	15	[0, 0, 0]	-999	PAL1	1	R1136N
1665.744	0.001	2171369	TEST_PROBE	n/a	wordpools/wordpool_EN.txt	1	1	GLASS	n/a	GLASS	LAMB	15	[0, 0, 0]	-999	PAL1	1	R1136N
1665.745	4.922	2171370	REC_START	n/a	n/a	1	-999	n/a	n/a	n/a	n/a	15	[0, 0, 0]	-999	PAL1	1	R1136N
1670.667	0.103	2176292	REC_EVENT	4922	n/a	1	1	GLASS	<>	GLASS	LAMB	15	[0, 0, 0]	-999	PAL1	1	R1136N
1670.77	0.008	2176395	REC_END	n/a	n/a	1	-999	n/a	n/a	n/a	n/a	15	[0, 0, 0]	-999	PAL1	1	R1136N
1670.778	0.933	2176403	TEST_ORIENT	n/a	n/a	6	2	SLIME	MUD	MUD	SLIME	15	[0, 0, 0]	-999	PAL1	1	R1136N
1671.711	0.001	2177336	TEST_PROBE	n/a	wordpools/wordpool_EN.txt	6	2	SLIME	MUD	MUD	SLIME	15	[0, 0, 0]	-999	PAL1	1	R1136N
1671.712	1.133	2177337	REC_START	n/a	n/a	6	-999	n/a	MUD	n/a	n/a	15	[0, 0, 0]	-999	PAL1	1	R1136N
1672.845	3.884	2178470	REC_EVENT	1133	n/a	6	2	SLIME	MUD	MUD	SLIME	15	[0, 0, 0]	-999	PAL1	1	R1136N
1676.729	0.017	2182354	REC_END	n/a	n/a	6	-999	n/a	n/a	n/a	n/a	15	[0, 0, 0]	-999	PAL1	1	R1136N
1676.746	0.816	2182371	TEST_ORIENT	n/a	n/a	3	3	ROAD	n/a	CALF	ROAD	15	[0, 0, 0]	-999	PAL1	1	R1136N
1677.562	0.001	2183187	TEST_PROBE	n/a	wordpools/wordpool_EN.txt	3	3	ROAD	n/a	CALF	ROAD	15	[0, 0, 0]	-999	PAL1	1	R1136N
1677.563	4.876	2183188	REC_START	n/a	n/a	3	-999	n/a	n/a	n/a	n/a	15	[0, 0, 0]	-999	PAL1	1	R1136N
1682.439	0.15	2188063	REC_EVENT	4876	n/a	3	3	ROAD	<>	CALF	ROAD	15	[0, 0, 0]	-999	PAL1	1	R1136N
1682.589	0.008	2188213	REC_END	n/a	n/a	3	-999	n/a	n/a	n/a	n/a	15	[0, 0, 0]	-999	PAL1	1	R1136N
1682.597	0.966	2188221	TEST_ORIENT	n/a	n/a	4	4	CORN	n/a	DOOR	CORN	15	[0, 0, 0]	-999	PAL1	1	R1136N
1683.563	0.001	2189187	TEST_PROBE	n/a	wordpools/wordpool_EN.txt	4	4	CORN	n/a	DOOR	CORN	15	[0, 0, 0]	-999	PAL1	1	R1136N
1683.564	4.922	2189188	REC_START	n/a	n/a	4	-999	n/a	n/a	n/a	n/a	15	[0, 0, 0]	-999	PAL1	1	R1136N
1688.486	0.095	2194110	REC_EVENT	4922	n/a	4	4	CORN	<>	DOOR	CORN	15	[0, 0, 0]	-999	PAL1	1	R1136N
1688.581	0.017	2194205	REC_END	n/a	n/a	4	-999	n/a	n/a	n/a	n/a	15	[0, 0, 0]	-999	PAL1	1	R1136N
1688.598	0.833	2194222	TEST_ORIENT	n/a	n/a	5	5	FROG	n/a	HAT	FROG	15	[0, 0, 0]	-999	PAL1	1	R1136N
1689.431	0.0	2195055	REC_START	n/a	n/a	5	-999	n/a	n/a	n/a	n/a	15	[0, 0, 0]	-999	PAL1	1	R1136N
1689.431	4.876	2195055	TEST_PROBE	n/a	wordpools/wordpool_EN.txt	5	5	FROG	n/a	HAT	FROG	15	[0, 0, 0]	-999	PAL1	1	R1136N
1694.307	0.142	2199931	REC_EVENT	4876	n/a	5	5	FROG	<>	HAT	FROG	15	[0, 0, 0]	-999	PAL1	1	R1136N
1694.449	0.016	2200073	REC_END	n/a	n/a	5	-999	n/a	n/a	n/a	n/a	15	[0, 0, 0]	-999	PAL1	1	R1136N
1694.465	0.85	2200089	TEST_ORIENT	n/a	n/a	2	6	ROCK	n/a	ROCK	STEAM	15	[0, 0, 0]	-999	PAL1	1	R1136N
1695.315	0.001	2200939	TEST_PROBE	n/a	wordpools/wordpool_EN.txt	2	6	ROCK	n/a	ROCK	STEAM	15	[0, 0, 0]	-999	PAL1	1	R1136N
1695.316	4.876	2200940	REC_START	n/a	n/a	2	-999	n/a	n/a	n/a	n/a	15	[0, 0, 0]	-999	PAL1	1	R1136N
1700.192	0.15	2205815	REC_EVENT	4876	n/a	2	6	ROCK	<>	ROCK	STEAM	15	[0, 0, 0]	-999	PAL1	1	R1136N
1700.342	1.548	2205965	REC_END	n/a	n/a	2	-999	n/a	n/a	n/a	n/a	15	[0, 0, 0]	-999	PAL1	1	R1136N
1701.89	10.445	2207513	ENCODING_START	n/a	n/a	0	-999	n/a	n/a	n/a	n/a	16	[0, 0, 0]	-999	PAL1	1	R1136N
1712.335	1.017	2217958	STUDY_ORIENT	n/a	n/a	1	3	BOARD	n/a	BOARD	SLEEVE	16	[0, 0, 0]	-999	PAL1	1	R1136N
1713.352	5.034	2218975	STUDY_PAIR	n/a	wordpools/wordpool_EN.txt	1	3	BOARD	n/a	BOARD	SLEEVE	16	[0, 0, 0]	-999	PAL1	1	R1136N
1718.386	0.95	2224008	STUDY_ORIENT	n/a	n/a	2	6	BARN	n/a	BARN	LAND	16	[0, 0, 0]	-999	PAL1	1	R1136N
1719.336	5.035	2224958	STUDY_PAIR	n/a	wordpools/wordpool_EN.txt	2	6	BARN	n/a	BARN	LAND	16	[0, 0, 0]	-999	PAL1	1	R1136N
1724.371	0.799	2229993	STUDY_ORIENT	n/a	n/a	3	1	JET	n/a	JET	PEAR	16	[0, 0, 0]	-999	PAL1	1	R1136N
1725.17	5.035	2230792	STUDY_PAIR	n/a	wordpools/wordpool_EN.txt	3	1	JET	n/a	JET	PEAR	16	[0, 0, 0]	-999	PAL1	1	R1136N
1730.205	0.917	2235827	STUDY_ORIENT	n/a	n/a	4	2	STREET	n/a	SHIELD	STREET	16	[0, 0, 0]	-999	PAL1	1	R1136N
1731.122	5.034	2236744	STUDY_PAIR	n/a	wordpools/wordpool_EN.txt	4	2	STREET	n/a	SHIELD	STREET	16	[0, 0, 0]	-999	PAL1	1	R1136N
1736.156	0.934	2241778	STUDY_ORIENT	n/a	n/a	5	5	DOG	n/a	DOG	RAKE	16	[0, 0, 0]	-999	PAL1	1	R1136N
1737.09	5.033	2242711	STUDY_PAIR	n/a	wordpools/wordpool_EN.txt	5	5	DOG	n/a	DOG	RAKE	16	[0, 0, 0]	-999	PAL1	1	R1136N
1742.123	0.834	2247744	STUDY_ORIENT	n/a	n/a	6	4	STOVE	n/a	STOVE	FOOD	16	[0, 0, 0]	-999	PAL1	1	R1136N
1742.957	4.018	2248578	STUDY_PAIR	n/a	wordpools/wordpool_EN.txt	6	4	STOVE	n/a	STOVE	FOOD	16	[0, 0, 0]	-999	PAL1	1	R1136N
1746.975	0.999	2252596	START	n/a	n/a	-999	-999	n/a	n/a	n/a	n/a	16	[-999, -999, -999]	-999	PAL1	1	R1136N
1747.974	0.018	2253595	MATH_START	n/a	n/a	-999	-999	n/a	n/a	n/a	n/a	16	[0, 0, 0]	-999	PAL1	1	R1136N
1747.992	4.383	2253613	PROB	4362	n/a	-999	-999	n/a	n/a	n/a	n/a	16	[7, 7, 3]	17	PAL1	1	R1136N
1752.375	2.568	2257996	PROB	2547	n/a	-999	-999	n/a	n/a	n/a	n/a	16	[6, 4, 4]	14	PAL1	1	R1136N
1754.943	6.467	2260564	PROB	6434	n/a	-999	-999	n/a	n/a	n/a	n/a	16	[9, 3, 2]	14	PAL1	1	R1136N
1761.41	2.167	2267030	PROB	2144	n/a	-999	-999	n/a	n/a	n/a	n/a	16	[5, 3, 7]	15	PAL1	1	R1136N
1763.577	3.15	2269197	PROB	3129	n/a	-999	-999	n/a	n/a	n/a	n/a	16	[8, 3, 9]	20	PAL1	1	R1136N
1766.727	2.011	2272347	PROB	2011	n/a	-999	-999	n/a	n/a	n/a	n/a	16	[2, 2, 5]	9	PAL1	1	R1136N
1768.738	0.006	2274358	STOP	n/a	n/a	-999	-999	n/a	n/a	n/a	n/a	16	[-999, -999, -999]	-999	PAL1	1	R1136N
1768.744	0.0	2274364	MATH_END	n/a	n/a	-999	-999	n/a	n/a	n/a	n/a	16	[0, 0, 0]	-999	PAL1	1	R1136N
1768.744	0.018	2274364	TEST_START	n/a	n/a	-999	-999	n/a	n/a	n/a	n/a	16	[0, 0, 0]	-999	PAL1	1	R1136N
1768.762	0.949	2274382	TEST_ORIENT	n/a	n/a	3	1	JET	n/a	JET	PEAR	16	[0, 0, 0]	-999	PAL1	1	R1136N
1769.711	0.001	2275331	TEST_PROBE	n/a	wordpools/wordpool_EN.txt	3	1	JET	n/a	JET	PEAR	16	[0, 0, 0]	-999	PAL1	1	R1136N
1769.712	4.899	2275332	REC_START	n/a	n/a	3	-999	n/a	n/a	n/a	n/a	16	[0, 0, 0]	-999	PAL1	1	R1136N
1774.611	0.118	2280231	REC_EVENT	4899	n/a	3	1	JET	<>	JET	PEAR	16	[0, 0, 0]	-999	PAL1	1	R1136N
1774.729	0.017	2280349	REC_END	n/a	n/a	3	-999	n/a	n/a	n/a	n/a	16	[0, 0, 0]	-999	PAL1	1	R1136N
1774.746	0.85	2280366	TEST_ORIENT	n/a	n/a	4	2	STREET	n/a	SHIELD	STREET	16	[0, 0, 0]	-999	PAL1	1	R1136N
1775.596	0.0	2281215	TEST_PROBE	n/a	wordpools/wordpool_EN.txt	4	2	STREET	n/a	SHIELD	STREET	16	[0, 0, 0]	-999	PAL1	1	R1136N
1775.596	4.876	2281215	REC_START	n/a	n/a	4	-999	n/a	n/a	n/a	n/a	16	[0, 0, 0]	-999	PAL1	1	R1136N
1780.472	0.15	2286091	REC_EVENT	4876	n/a	4	2	STREET	<>	SHIELD	STREET	16	[0, 0, 0]	-999	PAL1	1	R1136N
1780.622	0.008	2286241	REC_END	n/a	n/a	4	-999	n/a	n/a	n/a	n/a	16	[0, 0, 0]	-999	PAL1	1	R1136N
1780.63	0.833	2286249	TEST_ORIENT	n/a	n/a	1	3	BOARD	n/a	BOARD	SLEEVE	16	[0, 0, 0]	-999	PAL1	1	R1136N
1781.463	0.001	2287082	TEST_PROBE	n/a	wordpools/wordpool_EN.txt	1	3	BOARD	n/a	BOARD	SLEEVE	16	[0, 0, 0]	-999	PAL1	1	R1136N
1781.464	4.899	2287083	REC_START	n/a	n/a	1	-999	n/a	n/a	n/a	n/a	16	[0, 0, 0]	-999	PAL1	1	R1136N
1786.363	0.118	2291982	REC_EVENT	4899	n/a	1	3	BOARD	<>	BOARD	SLEEVE	16	[0, 0, 0]	-999	PAL1	1	R1136N
1786.481	0.017	2292100	REC_END	n/a	n/a	1	-999	n/a	n/a	n/a	n/a	16	[0, 0, 0]	-999	PAL1	1	R1136N
1786.498	0.817	2292117	TEST_ORIENT	n/a	n/a	6	4	STOVE	n/a	STOVE	FOOD	16	[0, 0, 0]	-999	PAL1	1	R1136N
1787.315	0.001	2292934	TEST_PROBE	n/a	wordpools/wordpool_EN.txt	6	4	STOVE	n/a	STOVE	FOOD	16	[0, 0, 0]	-999	PAL1	1	R1136N
1787.316	4.899	2292935	REC_START	n/a	n/a	6	-999	n/a	n/a	n/a	n/a	16	[0, 0, 0]	-999	PAL1	1	R1136N
1792.215	0.126	2297834	REC_EVENT	4899	n/a	6	4	STOVE	<>	STOVE	FOOD	16	[0, 0, 0]	-999	PAL1	1	R1136N
1792.341	0.008	2297960	REC_END	n/a	n/a	6	-999	n/a	n/a	n/a	n/a	16	[0, 0, 0]	-999	PAL1	1	R1136N
1792.349	0.85	2297968	TEST_ORIENT	n/a	n/a	5	5	DOG	n/a	DOG	RAKE	16	[0, 0, 0]	-999	PAL1	1	R1136N
1793.199	0.0	2298818	REC_START	n/a	n/a	5	-999	n/a	n/a	n/a	n/a	16	[0, 0, 0]	-999	PAL1	1	R1136N
1793.199	4.876	2298818	TEST_PROBE	n/a	wordpools/wordpool_EN.txt	5	5	DOG	n/a	DOG	RAKE	16	[0, 0, 0]	-999	PAL1	1	R1136N
1798.075	0.142	2303693	REC_EVENT	4876	n/a	5	5	DOG	<>	DOG	RAKE	16	[0, 0, 0]	-999	PAL1	1	R1136N
1798.217	0.016	2303835	REC_END	n/a	n/a	5	-999	n/a	n/a	n/a	n/a	16	[0, 0, 0]	-999	PAL1	1	R1136N
1798.233	0.883	2303851	TEST_ORIENT	n/a	n/a	2	6	BARN	n/a	BARN	LAND	16	[0, 0, 0]	-999	PAL1	1	R1136N
1799.116	0.001	2304734	TEST_PROBE	n/a	wordpools/wordpool_EN.txt	2	6	BARN	n/a	BARN	LAND	16	[0, 0, 0]	-999	PAL1	1	R1136N
1799.117	4.899	2304735	REC_START	n/a	n/a	2	-999	n/a	n/a	n/a	n/a	16	[0, 0, 0]	-999	PAL1	1	R1136N
1804.016	0.129	2309634	REC_EVENT	4899	n/a	2	6	BARN	<>	BARN	LAND	16	[0, 0, 0]	-999	PAL1	1	R1136N
1804.145	1.897	2309763	REC_END	n/a	n/a	2	-999	n/a	n/a	n/a	n/a	16	[0, 0, 0]	-999	PAL1	1	R1136N
1806.042	10.444	2311660	ENCODING_START	n/a	n/a	0	-999	n/a	n/a	n/a	n/a	17	[0, 0, 0]	-999	PAL1	1	R1136N
1816.486	0.951	2322103	STUDY_ORIENT	n/a	n/a	1	1	FAN	MILK	FAN	MILK	17	[0, 0, 0]	-999	PAL1	1	R1136N
1817.437	5.033	2323054	STUDY_PAIR	n/a	wordpools/wordpool_EN.txt	1	1	FAN	MILK	FAN	MILK	17	[0, 0, 0]	-999	PAL1	1	R1136N
1822.47	0.985	2328087	STUDY_ORIENT	n/a	n/a	2	2	GUARD	n/a	GUARD	DESK	17	[0, 0, 0]	-999	PAL1	1	R1136N
1823.455	5.033	2329072	STUDY_PAIR	n/a	wordpools/wordpool_EN.txt	2	2	GUARD	n/a	GUARD	DESK	17	[0, 0, 0]	-999	PAL1	1	R1136N
1828.488	1.0	2334105	STUDY_ORIENT	n/a	n/a	3	3	EGG	n/a	EGG	SAIL	17	[0, 0, 0]	-999	PAL1	1	R1136N
1829.488	5.034	2335105	STUDY_PAIR	n/a	wordpools/wordpool_EN.txt	3	3	EGG	n/a	EGG	SAIL	17	[0, 0, 0]	-999	PAL1	1	R1136N
1834.522	0.984	2340138	STUDY_ORIENT	n/a	n/a	4	4	STORM	n/a	STORM	TOOL	17	[0, 0, 0]	-999	PAL1	1	R1136N
1835.506	5.035	2341122	STUDY_PAIR	n/a	wordpools/wordpool_EN.txt	4	4	STORM	n/a	STORM	TOOL	17	[0, 0, 0]	-999	PAL1	1	R1136N
1840.541	0.799	2346157	STUDY_ORIENT	n/a	n/a	5	5	BEE	n/a	GATE	BEE	17	[0, 0, 0]	-999	PAL1	1	R1136N
1841.34	5.034	2346956	STUDY_PAIR	n/a	wordpools/wordpool_EN.txt	5	5	BEE	n/a	GATE	BEE	17	[0, 0, 0]	-999	PAL1	1	R1136N
1846.374	1.017	2351990	STUDY_ORIENT	n/a	n/a	6	6	RAT	SNAKE	SNAKE	RAT	17	[0, 0, 0]	-999	PAL1	1	R1136N
1847.391	4.019	2353007	STUDY_PAIR	n/a	wordpools/wordpool_EN.txt	6	6	RAT	SNAKE	SNAKE	RAT	17	[0, 0, 0]	-999	PAL1	1	R1136N
1851.41	0.999	2357026	START	n/a	n/a	-999	-999	n/a	n/a	n/a	n/a	17	[-999, -999, -999]	-999	PAL1	1	R1136N
1852.409	0.017	2358024	MATH_START	n/a	n/a	-999	-999	n/a	n/a	n/a	n/a	17	[0, 0, 0]	-999	PAL1	1	R1136N
1852.426	5.468	2358041	PROB	5439	n/a	-999	-999	n/a	n/a	n/a	n/a	17	[5, 9, 5]	19	PAL1	1	R1136N
1857.894	2.883	2363509	PROB	2859	n/a	-999	-999	n/a	n/a	n/a	n/a	17	[3, 8, 6]	17	PAL1	1	R1136N
1860.777	3.884	2366392	PROB	3848	n/a	-999	-999	n/a	n/a	n/a	n/a	17	[4, 4, 3]	11	PAL1	1	R1136N
1864.661	4.951	2370276	PROB	4917	n/a	-999	-999	n/a	n/a	n/a	n/a	17	[1, 8, 6]	15	PAL1	1	R1136N
1869.612	2.493	2375227	PROB	2493	n/a	-999	-999	n/a	n/a	n/a	n/a	17	[9, 5, 6]	20	PAL1	1	R1136N
1872.105	0.007	2377719	STOP	n/a	n/a	-999	-999	n/a	n/a	n/a	n/a	17	[-999, -999, -999]	-999	PAL1	1	R1136N
1872.112	0.0	2377726	MATH_END	n/a	n/a	-999	-999	n/a	n/a	n/a	n/a	17	[0, 0, 0]	-999	PAL1	1	R1136N
1872.112	0.017	2377726	TEST_START	n/a	n/a	-999	-999	n/a	n/a	n/a	n/a	17	[0, 0, 0]	-999	PAL1	1	R1136N
1872.129	0.9	2377743	TEST_ORIENT	n/a	n/a	1	1	FAN	MILK	FAN	MILK	17	[0, 0, 0]	-999	PAL1	1	R1136N
1873.029	0.001	2378643	TEST_PROBE	n/a	wordpools/wordpool_EN.txt	1	1	FAN	MILK	FAN	MILK	17	[0, 0, 0]	-999	PAL1	1	R1136N
1873.03	2.686	2378644	REC_START	n/a	n/a	1	-999	n/a	MILK	n/a	n/a	17	[0, 0, 0]	-999	PAL1	1	R1136N
1875.716	2.339	2381330	REC_EVENT	2686	n/a	1	1	FAN	MILK	FAN	MILK	17	[0, 0, 0]	-999	PAL1	1	R1136N
1878.055	0.008	2383669	REC_END	n/a	n/a	1	-999	n/a	n/a	n/a	n/a	17	[0, 0, 0]	-999	PAL1	1	R1136N
1878.063	0.867	2383677	TEST_ORIENT	n/a	n/a	2	2	GUARD	n/a	GUARD	DESK	17	[0, 0, 0]	-999	PAL1	1	R1136N
1878.93	0.0	2384544	TEST_PROBE	n/a	wordpools/wordpool_EN.txt	2	2	GUARD	n/a	GUARD	DESK	17	[0, 0, 0]	-999	PAL1	1	R1136N
1878.93	4.922	2384544	REC_START	n/a	n/a	2	-999	n/a	n/a	n/a	n/a	17	[0, 0, 0]	-999	PAL1	1	R1136N
1883.852	0.095	2389466	REC_EVENT	4922	n/a	2	2	GUARD	<>	GUARD	DESK	17	[0, 0, 0]	-999	PAL1	1	R1136N
1883.947	0.018	2389561	REC_END	n/a	n/a	2	-999	n/a	n/a	n/a	n/a	17	[0, 0, 0]	-999	PAL1	1	R1136N
1883.965	0.832	2389579	TEST_ORIENT	n/a	n/a	3	3	EGG	n/a	EGG	SAIL	17	[0, 0, 0]	-999	PAL1	1	R1136N
1884.797	0.001	2390411	TEST_PROBE	n/a	wordpools/wordpool_EN.txt	3	3	EGG	n/a	EGG	SAIL	17	[0, 0, 0]	-999	PAL1	1	R1136N
1884.798	4.922	2390412	REC_START	n/a	n/a	3	-999	n/a	n/a	n/a	n/a	17	[0, 0, 0]	-999	PAL1	1	R1136N
1889.72	0.096	2395334	REC_EVENT	4922	n/a	3	3	EGG	<>	EGG	SAIL	17	[0, 0, 0]	-999	PAL1	1	R1136N
1889.816	0.015	2395430	REC_END	n/a	n/a	3	-999	n/a	n/a	n/a	n/a	17	[0, 0, 0]	-999	PAL1	1	R1136N
1889.831	0.851	2395445	TEST_ORIENT	n/a	n/a	4	4	STORM	n/a	STORM	TOOL	17	[0, 0, 0]	-999	PAL1	1	R1136N
1890.682	0.0	2396295	TEST_PROBE	n/a	wordpools/wordpool_EN.txt	4	4	STORM	n/a	STORM	TOOL	17	[0, 0, 0]	-999	PAL1	1	R1136N
1890.682	4.852	2396295	REC_START	n/a	n/a	4	-999	n/a	n/a	n/a	n/a	17	[0, 0, 0]	-999	PAL1	1	R1136N
1895.534	0.166	2401147	REC_EVENT	4852	n/a	4	4	STORM	<>	STORM	TOOL	17	[0, 0, 0]	-999	PAL1	1	R1136N
1895.7	0.017	2401313	REC_END	n/a	n/a	4	-999	n/a	n/a	n/a	n/a	17	[0, 0, 0]	-999	PAL1	1	R1136N
1895.717	0.933	2401330	TEST_ORIENT	n/a	n/a	5	5	BEE	n/a	GATE	BEE	17	[0, 0, 0]	-999	PAL1	1	R1136N
1896.65	0.001	2402263	TEST_PROBE	n/a	wordpools/wordpool_EN.txt	5	5	BEE	n/a	GATE	BEE	17	[0, 0, 0]	-999	PAL1	1	R1136N
1896.651	4.806	2402264	REC_START	n/a	n/a	5	-999	n/a	n/a	n/a	n/a	17	[0, 0, 0]	-999	PAL1	1	R1136N
1901.457	0.21	2407070	REC_EVENT	4806	n/a	5	5	BEE	<>	GATE	BEE	17	[0, 0, 0]	-999	PAL1	1	R1136N
1901.667	0.017	2407280	REC_END	n/a	n/a	5	-999	n/a	n/a	n/a	n/a	17	[0, 0, 0]	-999	PAL1	1	R1136N
1901.684	0.866	2407297	TEST_ORIENT	n/a	n/a	6	6	RAT	SNAKE	SNAKE	RAT	17	[0, 0, 0]	-999	PAL1	1	R1136N
1902.55	0.001	2408163	TEST_PROBE	n/a	wordpools/wordpool_EN.txt	6	6	RAT	SNAKE	SNAKE	RAT	17	[0, 0, 0]	-999	PAL1	1	R1136N
1902.551	1.2	2408164	REC_START	n/a	n/a	6	-999	n/a	SNAKE	n/a	n/a	17	[0, 0, 0]	-999	PAL1	1	R1136N
1903.751	3.818	2409364	REC_EVENT	1200	n/a	6	6	RAT	SNAKE	SNAKE	RAT	17	[0, 0, 0]	-999	PAL1	1	R1136N
1907.569	1.377	2413182	REC_END	n/a	n/a	6	-999	n/a	n/a	n/a	n/a	17	[0, 0, 0]	-999	PAL1	1	R1136N
1908.946	10.441	2414559	ENCODING_START	n/a	n/a	0	-999	n/a	n/a	n/a	n/a	18	[0, 0, 0]	-999	PAL1	1	R1136N
1919.387	0.933	2424999	STUDY_ORIENT	n/a	n/a	1	3	BROOM	SCHOOL	BROOM	SCHOOL	18	[0, 0, 0]	-999	PAL1	1	R1136N
1920.32	5.035	2425932	STUDY_PAIR	n/a	wordpools/wordpool_EN.txt	1	3	BROOM	SCHOOL	BROOM	SCHOOL	18	[0, 0, 0]	-999	PAL1	1	R1136N
1925.355	0.967	2430967	STUDY_ORIENT	n/a	n/a	2	4	DIME	n/a	PHONE	DIME	18	[0, 0, 0]	-999	PAL1	1	R1136N
1926.322	5.034	2431934	STUDY_PAIR	n/a	wordpools/wordpool_EN.txt	2	4	DIME	n/a	PHONE	DIME	18	[0, 0, 0]	-999	PAL1	1	R1136N
1931.356	0.866	2436967	STUDY_ORIENT	n/a	n/a	3	1	CANE	n/a	HILL	CANE	18	[0, 0, 0]	-999	PAL1	1	R1136N
1932.222	5.034	2437833	STUDY_PAIR	n/a	wordpools/wordpool_EN.txt	3	1	CANE	n/a	HILL	CANE	18	[0, 0, 0]	-999	PAL1	1	R1136N
1937.256	0.834	2442867	STUDY_ORIENT	n/a	n/a	4	2	MOON	STRING	STRING	MOON	18	[0, 0, 0]	-999	PAL1	1	R1136N
1938.09	5.035	2443701	STUDY_PAIR	n/a	wordpools/wordpool_EN.txt	4	2	MOON	STRING	STRING	MOON	18	[0, 0, 0]	-999	PAL1	1	R1136N
1943.125	0.883	2448736	STUDY_ORIENT	n/a	n/a	5	5	ROOF	n/a	COUCH	ROOF	18	[0, 0, 0]	-999	PAL1	1	R1136N
1944.008	5.034	2449619	STUDY_PAIR	n/a	wordpools/wordpool_EN.txt	5	5	ROOF	n/a	COUCH	ROOF	18	[0, 0, 0]	-999	PAL1	1	R1136N
1949.042	0.95	2454652	STUDY_ORIENT	n/a	n/a	6	6	WALL	n/a	FLEA	WALL	18	[0, 0, 0]	-999	PAL1	1	R1136N
1949.992	4.018	2455602	STUDY_PAIR	n/a	wordpools/wordpool_EN.txt	6	6	WALL	n/a	FLEA	WALL	18	[0, 0, 0]	-999	PAL1	1	R1136N
1954.01	0.999	2459620	START	n/a	n/a	-999	-999	n/a	n/a	n/a	n/a	18	[-999, -999, -999]	-999	PAL1	1	R1136N
1955.009	0.018	2460619	MATH_START	n/a	n/a	-999	-999	n/a	n/a	n/a	n/a	18	[0, 0, 0]	-999	PAL1	1	R1136N
1955.027	3.233	2460637	PROB	3199	n/a	-999	-999	n/a	n/a	n/a	n/a	18	[9, 3, 5]	17	PAL1	1	R1136N
1958.26	2.634	2463870	PROB	2614	n/a	-999	-999	n/a	n/a	n/a	n/a	18	[8, 2, 7]	17	PAL1	1	R1136N
1960.894	2.634	2466504	PROB	2611	n/a	-999	-999	n/a	n/a	n/a	n/a	18	[6, 5, 7]	18	PAL1	1	R1136N
1963.528	3.55	2469138	PROB	3529	n/a	-999	-999	n/a	n/a	n/a	n/a	18	[7, 2, 9]	18	PAL1	1	R1136N
1967.078	2.767	2472687	PROB	2730	n/a	-999	-999	n/a	n/a	n/a	n/a	18	[9, 3, 8]	20	PAL1	1	R1136N
1969.845	2.234	2475454	PROB	2204	n/a	-999	-999	n/a	n/a	n/a	n/a	18	[8, 3, 2]	13	PAL1	1	R1136N
1972.079	2.491	2477688	PROB	2491	n/a	-999	-999	n/a	n/a	n/a	n/a	18	[8, 8, 2]	18	PAL1	1	R1136N
1974.57	0.009	2480179	STOP	n/a	n/a	-999	-999	n/a	n/a	n/a	n/a	18	[-999, -999, -999]	-999	PAL1	1	R1136N
1974.579	0.0	2480188	MATH_END	n/a	n/a	-999	-999	n/a	n/a	n/a	n/a	18	[0, 0, 0]	-999	PAL1	1	R1136N
1974.579	0.017	2480188	TEST_START	n/a	n/a	-999	-999	n/a	n/a	n/a	n/a	18	[0, 0, 0]	-999	PAL1	1	R1136N
1974.596	0.951	2480205	TEST_ORIENT	n/a	n/a	3	1	CANE	n/a	HILL	CANE	18	[0, 0, 0]	-999	PAL1	1	R1136N
1975.547	0.001	2481156	TEST_PROBE	n/a	wordpools/wordpool_EN.txt	3	1	CANE	n/a	HILL	CANE	18	[0, 0, 0]	-999	PAL1	1	R1136N
1975.548	4.783	2481157	REC_START	n/a	n/a	3	-999	n/a	n/a	n/a	n/a	18	[0, 0, 0]	-999	PAL1	1	R1136N
1980.331	0.242	2485940	REC_EVENT	4783	n/a	3	1	CANE	<>	HILL	CANE	18	[0, 0, 0]	-999	PAL1	1	R1136N
1980.573	0.008	2486182	REC_END	n/a	n/a	3	-999	n/a	n/a	n/a	n/a	18	[0, 0, 0]	-999	PAL1	1	R1136N
1980.581	0.816	2486190	TEST_ORIENT	n/a	n/a	4	2	MOON	STRING	STRING	MOON	18	[0, 0, 0]	-999	PAL1	1	R1136N
1981.397	0.001	2487006	TEST_PROBE	n/a	wordpools/wordpool_EN.txt	4	2	MOON	STRING	STRING	MOON	18	[0, 0, 0]	-999	PAL1	1	R1136N
1981.398	1.283	2487007	REC_START	n/a	n/a	4	-999	n/a	STRING	n/a	n/a	18	[0, 0, 0]	-999	PAL1	1	R1136N
1982.681	3.733	2488290	REC_EVENT	1283	n/a	4	2	MOON	STRING	STRING	MOON	18	[0, 0, 0]	-999	PAL1	1	R1136N
1986.414	0.017	2492022	REC_END	n/a	n/a	4	-999	n/a	n/a	n/a	n/a	18	[0, 0, 0]	-999	PAL1	1	R1136N
1986.431	0.9	2492039	TEST_ORIENT	n/a	n/a	1	3	BROOM	SCHOOL	BROOM	SCHOOL	18	[0, 0, 0]	-999	PAL1	1	R1136N
1987.331	0.001	2492939	TEST_PROBE	n/a	wordpools/wordpool_EN.txt	1	3	BROOM	SCHOOL	BROOM	SCHOOL	18	[0, 0, 0]	-999	PAL1	1	R1136N
1987.332	2.492	2492940	REC_START	n/a	n/a	1	-999	n/a	SCHOOL	n/a	n/a	18	[0, 0, 0]	-999	PAL1	1	R1136N
1989.824	2.534	2495432	REC_EVENT	2492	n/a	1	3	BROOM	SCHOOL	BROOM	SCHOOL	18	[0, 0, 0]	-999	PAL1	1	R1136N
1992.358	0.008	2497966	REC_END	n/a	n/a	1	-999	n/a	n/a	n/a	n/a	18	[0, 0, 0]	-999	PAL1	1	R1136N
1992.366	1.017	2497974	TEST_ORIENT	n/a	n/a	2	4	DIME	n/a	PHONE	DIME	18	[0, 0, 0]	-999	PAL1	1	R1136N
1993.383	0.001	2498991	TEST_PROBE	n/a	wordpools/wordpool_EN.txt	2	4	DIME	n/a	PHONE	DIME	18	[0, 0, 0]	-999	PAL1	1	R1136N
1993.384	4.899	2498992	REC_START	n/a	n/a	2	-999	n/a	n/a	n/a	n/a	18	[0, 0, 0]	-999	PAL1	1	R1136N
1998.283	0.126	2503891	REC_EVENT	4899	n/a	2	4	DIME	<>	PHONE	DIME	18	[0, 0, 0]	-999	PAL1	1	R1136N
1998.409	0.008	2504017	REC_END	n/a	n/a	2	-999	n/a	n/a	n/a	n/a	18	[0, 0, 0]	-999	PAL1	1	R1136N
1998.417	1.033	2504025	TEST_ORIENT	n/a	n/a	5	5	ROOF	n/a	COUCH	ROOF	18	[0, 0, 0]	-999	PAL1	1	R1136N
1999.45	0.001	2505058	TEST_PROBE	n/a	wordpools/wordpool_EN.txt	5	5	ROOF	n/a	COUCH	ROOF	18	[0, 0, 0]	-999	PAL1	1	R1136N
1999.451	4.852	2505059	REC_START	n/a	n/a	5	-999	n/a	n/a	n/a	n/a	18	[0, 0, 0]	-999	PAL1	1	R1136N
2004.303	0.164	2509911	REC_EVENT	4852	n/a	5	5	ROOF	<>	COUCH	ROOF	18	[0, 0, 0]	-999	PAL1	1	R1136N
2004.467	0.018	2510075	REC_END	n/a	n/a	5	-999	n/a	n/a	n/a	n/a	18	[0, 0, 0]	-999	PAL1	1	R1136N
2004.485	0.883	2510093	TEST_ORIENT	n/a	n/a	6	6	WALL	n/a	FLEA	WALL	18	[0, 0, 0]	-999	PAL1	1	R1136N
2005.368	0.001	2510975	TEST_PROBE	n/a	wordpools/wordpool_EN.txt	6	6	WALL	n/a	FLEA	WALL	18	[0, 0, 0]	-999	PAL1	1	R1136N
2005.369	4.852	2510976	REC_START	n/a	n/a	6	-999	n/a	n/a	n/a	n/a	18	[0, 0, 0]	-999	PAL1	1	R1136N
2010.221	0.173	2515828	REC_EVENT	4852	n/a	6	6	WALL	<>	FLEA	WALL	18	[0, 0, 0]	-999	PAL1	1	R1136N
2010.394	1.44	2516001	REC_END	n/a	n/a	6	-999	n/a	n/a	n/a	n/a	18	[0, 0, 0]	-999	PAL1	1	R1136N
2011.834	10.454	2517441	ENCODING_START	n/a	n/a	0	-999	n/a	n/a	n/a	n/a	19	[0, 0, 0]	-999	PAL1	1	R1136N
2022.288	0.867	2527895	STUDY_ORIENT	n/a	n/a	1	5	PEACH	n/a	NEST	PEACH	19	[0, 0, 0]	-999	PAL1	1	R1136N
2023.155	5.033	2528762	STUDY_PAIR	n/a	wordpools/wordpool_EN.txt	1	5	PEACH	n/a	NEST	PEACH	19	[0, 0, 0]	-999	PAL1	1	R1136N
2028.188	0.818	2533794	STUDY_ORIENT	n/a	n/a	2	6	LAWN	n/a	DOCK	LAWN	19	[0, 0, 0]	-999	PAL1	1	R1136N
