onset	duration	sample	trial_type	response_time	stim_file	serialpos	probepos	probe_word	resp_word	study_1	study_2	list	test	answer	experiment	session	subject
0.0	71.815	262436	SESS_START	n/a	n/a	-999	-999	n/a	n/a	n/a	n/a	-999	[0, 0, 0]	-999	PAL1	2	R1162N
71.815	1.016	334247	START	n/a	n/a	-999	-999	n/a	n/a	n/a	n/a	-1	[-999, -999, -999]	-999	PAL1	2	R1162N
72.831	3.366	335263	PROB	3334	n/a	-999	-999	n/a	n/a	n/a	n/a	-1	[3, 7, 5]	15	PAL1	2	R1162N
76.197	2.469	338629	PROB	2441	n/a	-999	-999	n/a	n/a	n/a	n/a	-1	[2, 4, 2]	8	PAL1	2	R1162N
78.666	2.582	341098	PROB	2563	n/a	-999	-999	n/a	n/a	n/a	n/a	-1	[1, 8, 9]	18	PAL1	2	R1162N
81.248	2.485	343679	PROB	2454	n/a	-999	-999	n/a	n/a	n/a	n/a	-1	[4, 4, 4]	12	PAL1	2	R1162N
83.733	2.533	346164	PROB	2504	n/a	-999	-999	n/a	n/a	n/a	n/a	-1	[5, 3, 8]	16	PAL1	2	R1162N
86.266	3.535	348697	PROB	3516	n/a	-999	-999	n/a	n/a	n/a	n/a	-1	[4, 8, 5]	17	PAL1	2	R1162N
89.801	3.893	352232	PROB	3893	n/a	-999	-999	n/a	n/a	n/a	n/a	-1	[5, 7, 6]	18	PAL1	2	R1162N
93.694	41.952	356125	STOP	n/a	n/a	-999	-999	n/a	n/a	n/a	n/a	-1	[-999, -999, -999]	-999	PAL1	2	R1162N
135.646	10.447	398075	ENCODING_START	n/a	n/a	0	-999	n/a	n/a	n/a	n/a	1	[0, 0, 0]	-999	PAL1	2	R1162N
146.093	1.0	408521	STUDY_ORIENT	n/a	n/a	1	3	OAR	FRUIT	FRUIT	OAR	1	[0, 0, 0]	-999	PAL1	2	R1162N
147.093	5.034	409521	STUDY_PAIR	n/a	wordpools/wordpool_EN.txt	1	3	OAR	FRUIT	FRUIT	OAR	1	[0, 0, 0]	-999	PAL1	2	R1162N
152.127	0.9	414555	STUDY_ORIENT	n/a	n/a	2	2	SHIRT	LOCK	LOCK	SHIRT	1	[0, 0, 0]	-999	PAL1	2	R1162N
153.027	5.034	415455	STUDY_PAIR	n/a	wordpools/wordpool_EN.txt	2	2	SHIRT	LOCK	LOCK	SHIRT	1	[0, 0, 0]	-999	PAL1	2	R1162N
158.061	1.017	420488	STUDY_ORIENT	n/a	n/a	3	1	PEARL	n/a	PEARL	LEG	1	[0, 0, 0]	-999	PAL1	2	R1162N
159.078	5.034	421505	STUDY_PAIR	n/a	wordpools/wordpool_EN.txt	3	1	PEARL	n/a	PEARL	LEG	1	[0, 0, 0]	-999	PAL1	2	R1162N
164.112	1.001	426539	STUDY_ORIENT	n/a	n/a	4	4	CAT	PEA	PEA	CAT	1	[0, 0, 0]	-999	PAL1	2	R1162N
165.113	5.034	427540	STUDY_PAIR	n/a	wordpools/wordpool_EN.txt	4	4	CAT	PEA	PEA	CAT	1	[0, 0, 0]	-999	PAL1	2	R1162N
170.147	0.966	432574	STUDY_ORIENT	n/a	n/a	5	5	HORN	n/a	HOSE	HORN	1	[0, 0, 0]	-999	PAL1	2	R1162N
171.113	5.018	433540	STUDY_PAIR	n/a	wordpools/wordpool_EN.txt	5	5	HORN	n/a	HOSE	HORN	1	[0, 0, 0]	-999	PAL1	2	R1162N
176.131	1.017	438557	STUDY_ORIENT	n/a	n/a	6	6	DART	n/a	DART	SQUARE	1	[0, 0, 0]	-999	PAL1	2	R1162N
177.148	4.018	439574	STUDY_PAIR	n/a	wordpools/wordpool_EN.txt	6	6	DART	n/a	DART	SQUARE	1	[0, 0, 0]	-999	PAL1	2	R1162N
181.166	0.999	443592	START	n/a	n/a	-999	-999	n/a	n/a	n/a	n/a	1	[-999, -999, -999]	-999	PAL1	2	R1162N
182.165	0.017	444591	MATH_START	n/a	n/a	-999	-999	n/a	n/a	n/a	n/a	1	[0, 0, 0]	-999	PAL1	2	R1162N
182.182	4.117	444608	PROB	4087	n/a	-999	-999	n/a	n/a	n/a	n/a	1	[5, 9, 8]	22	PAL1	2	R1162N
186.299	2.151	448725	PROB	2130	n/a	-999	-999	n/a	n/a	n/a	n/a	1	[1, 5, 5]	11	PAL1	2	R1162N
188.45	5.368	450876	PROB	5348	n/a	-999	-999	n/a	n/a	n/a	n/a	1	[3, 7, 9]	19	PAL1	2	R1162N
193.818	1.984	456244	PROB	1956	n/a	-999	-999	n/a	n/a	n/a	n/a	1	[1, 4, 1]	6	PAL1	2	R1162N
195.802	2.566	458227	PROB	2547	n/a	-999	-999	n/a	n/a	n/a	n/a	1	[7, 1, 2]	10	PAL1	2	R1162N
198.368	4.358	460793	PROB	4358	n/a	-999	-999	n/a	n/a	n/a	n/a	1	[9, 8, 5]	22	PAL1	2	R1162N
202.726	0.011	465151	STOP	n/a	n/a	-999	-999	n/a	n/a	n/a	n/a	1	[-999, -999, -999]	-999	PAL1	2	R1162N
202.737	0.0	465162	MATH_END	n/a	n/a	-999	-999	n/a	n/a	n/a	n/a	1	[0, 0, 0]	-999	PAL1	2	R1162N
202.737	0.016	465162	TEST_START	n/a	n/a	-999	-999	n/a	n/a	n/a	n/a	1	[0, 0, 0]	-999	PAL1	2	R1162N
202.753	0.967	465178	TEST_ORIENT	n/a	n/a	3	1	PEARL	n/a	PEARL	LEG	1	[0, 0, 0]	-999	PAL1	2	R1162N
203.72	0.002	466145	TEST_PROBE	n/a	wordpools/wordpool_EN.txt	3	1	PEARL	n/a	PEARL	LEG	1	[0, 0, 0]	-999	PAL1	2	R1162N
203.722	5.015	466147	REC_START	n/a	n/a	3	-999	n/a	n/a	n/a	n/a	1	[0, 0, 0]	-999	PAL1	2	R1162N
208.737	0.0	471162	REC_EVENT	5015	n/a	3	1	PEARL	<>	PEARL	LEG	1	[0, 0, 0]	-999	PAL1	2	R1162N
208.737	0.017	471162	REC_END	n/a	n/a	3	-999	n/a	n/a	n/a	n/a	1	[0, 0, 0]	-999	PAL1	2	R1162N
208.754	0.95	471179	TEST_ORIENT	n/a	n/a	2	2	SHIRT	LOCK	LOCK	SHIRT	1	[0, 0, 0]	-999	PAL1	2	R1162N
209.704	0.001	472129	TEST_PROBE	n/a	wordpools/wordpool_EN.txt	2	2	SHIRT	LOCK	LOCK	SHIRT	1	[0, 0, 0]	-999	PAL1	2	R1162N
209.705	1.18	472130	REC_START	n/a	n/a	2	-999	n/a	LOCK	n/a	n/a	1	[0, 0, 0]	-999	PAL1	2	R1162N
210.885	3.827	473310	REC_EVENT	1180	n/a	2	2	SHIRT	LOCK	LOCK	SHIRT	1	[0, 0, 0]	-999	PAL1	2	R1162N
214.712	0.01	477136	REC_END	n/a	n/a	2	-999	n/a	n/a	n/a	n/a	1	[0, 0, 0]	-999	PAL1	2	R1162N
214.722	0.983	477146	TEST_ORIENT	n/a	n/a	1	3	OAR	FRUIT	FRUIT	OAR	1	[0, 0, 0]	-999	PAL1	2	R1162N
215.705	0.001	478129	TEST_PROBE	n/a	wordpools/wordpool_EN.txt	1	3	OAR	FRUIT	FRUIT	OAR	1	[0, 0, 0]	-999	PAL1	2	R1162N
215.706	1.571	478130	REC_START	n/a	n/a	1	-999	n/a	FRUIT	n/a	n/a	1	[0, 0, 0]	-999	PAL1	2	R1162N
217.277	3.44	479701	REC_EVENT	1571	n/a	1	3	OAR	FRUIT	FRUIT	OAR	1	[0, 0, 0]	-999	PAL1	2	R1162N
220.717	0.006	483141	REC_END	n/a	n/a	1	-999	n/a	n/a	n/a	n/a	1	[0, 0, 0]	-999	PAL1	2	R1162N
220.723	1.0	483147	TEST_ORIENT	n/a	n/a	4	4	CAT	PEA	PEA	CAT	1	[0, 0, 0]	-999	PAL1	2	R1162N
221.723	0.0	484147	TEST_PROBE	n/a	wordpools/wordpool_EN.txt	4	4	CAT	PEA	PEA	CAT	1	[0, 0, 0]	-999	PAL1	2	R1162N
221.723	1.13	484147	REC_START	n/a	n/a	4	-999	n/a	PEA	n/a	n/a	1	[0, 0, 0]	-999	PAL1	2	R1162N
222.853	3.887	485277	REC_EVENT	1130	n/a	4	4	CAT	PEA	PEA	CAT	1	[0, 0, 0]	-999	PAL1	2	R1162N
226.74	0.017	489164	REC_END	n/a	n/a	4	-999	n/a	n/a	n/a	n/a	1	[0, 0, 0]	-999	PAL1	2	R1162N
226.757	0.95	489181	TEST_ORIENT	n/a	n/a	5	5	HORN	n/a	HOSE	HORN	1	[0, 0, 0]	-999	PAL1	2	R1162N
227.707	0.001	490131	TEST_PROBE	n/a	wordpools/wordpool_EN.txt	5	5	HORN	n/a	HOSE	HORN	1	[0, 0, 0]	-999	PAL1	2	R1162N
227.708	5.008	490132	REC_START	n/a	n/a	5	-999	n/a	n/a	n/a	n/a	1	[0, 0, 0]	-999	PAL1	2	R1162N
232.716	0.001	495139	REC_END	n/a	n/a	5	-999	n/a	n/a	n/a	n/a	1	[0, 0, 0]	-999	PAL1	2	R1162N
232.717	0.008	495140	REC_EVENT	5009	n/a	5	5	HORN	<>	HOSE	HORN	1	[0, 0, 0]	-999	PAL1	2	R1162N
232.725	1.017	495148	TEST_ORIENT	n/a	n/a	6	6	DART	n/a	DART	SQUARE	1	[0, 0, 0]	-999	PAL1	2	R1162N
233.742	0.0	496165	TEST_PROBE	n/a	wordpools/wordpool_EN.txt	6	6	DART	n/a	DART	SQUARE	1	[0, 0, 0]	-999	PAL1	2	R1162N
233.742	5.015	496165	REC_START	n/a	n/a	6	-999	n/a	n/a	n/a	n/a	1	[0, 0, 0]	-999	PAL1	2	R1162N
238.757	0.002	501180	REC_EVENT	5015	n/a	6	6	DART	<>	DART	SQUARE	1	[0, 0, 0]	-999	PAL1	2	R1162N
238.759	1.871	501182	REC_END	n/a	n/a	6	-999	n/a	n/a	n/a	n/a	1	[0, 0, 0]	-999	PAL1	2	R1162N
240.63	10.447	503053	ENCODING_START	n/a	n/a	0	-999	n/a	n/a	n/a	n/a	2	[0, 0, 0]	-999	PAL1	2	R1162N
251.077	0.784	513500	STUDY_ORIENT	n/a	n/a	1	1	FUR	JAIL	FUR	JAIL	2	[0, 0, 0]	-999	PAL1	2	R1162N
251.861	5.018	514283	STUDY_PAIR	n/a	wordpools/wordpool_EN.txt	1	1	FUR	JAIL	FUR	JAIL	2	[0, 0, 0]	-999	PAL1	2	R1162N
256.879	0.8	519301	STUDY_ORIENT	n/a	n/a	2	6	FILM	JUDGE	FILM	FUDGE	2	[0, 0, 0]	-999	PAL1	2	R1162N
257.679	5.034	520101	STUDY_PAIR	n/a	wordpools/wordpool_EN.txt	2	6	FILM	JUDGE	FILM	FUDGE	2	[0, 0, 0]	-999	PAL1	2	R1162N
262.713	1.001	525135	STUDY_ORIENT	n/a	n/a	3	5	DEER	TRAY	DEER	BOOK	2	[0, 0, 0]	-999	PAL1	2	R1162N
263.714	5.034	526136	STUDY_PAIR	n/a	wordpools/wordpool_EN.txt	3	5	DEER	TRAY	DEER	BOOK	2	[0, 0, 0]	-999	PAL1	2	R1162N
268.748	0.883	531170	STUDY_ORIENT	n/a	n/a	4	2	CLOTH	SHARK	SHARK	CLOTH	2	[0, 0, 0]	-999	PAL1	2	R1162N
269.631	5.034	532053	STUDY_PAIR	n/a	wordpools/wordpool_EN.txt	4	2	CLOTH	SHARK	SHARK	CLOTH	2	[0, 0, 0]	-999	PAL1	2	R1162N
274.665	0.967	537086	STUDY_ORIENT	n/a	n/a	5	3	SPOON	GOLD	GOLD	SPOON	2	[0, 0, 0]	-999	PAL1	2	R1162N
275.632	5.018	538053	STUDY_PAIR	n/a	wordpools/wordpool_EN.txt	5	3	SPOON	GOLD	GOLD	SPOON	2	[0, 0, 0]	-999	PAL1	2	R1162N
280.65	0.882	543071	STUDY_ORIENT	n/a	n/a	6	4	TRAY	HEART	TRAY	HEART	2	[0, 0, 0]	-999	PAL1	2	R1162N
281.532	4.001	543953	STUDY_PAIR	n/a	wordpools/wordpool_EN.txt	6	4	TRAY	HEART	TRAY	HEART	2	[0, 0, 0]	-999	PAL1	2	R1162N
285.533	1.0	547954	START	n/a	n/a	-999	-999	n/a	n/a	n/a	n/a	2	[-999, -999, -999]	-999	PAL1	2	R1162N
286.533	0.017	548954	MATH_START	n/a	n/a	-999	-999	n/a	n/a	n/a	n/a	2	[0, 0, 0]	-999	PAL1	2	R1162N
286.55	3.4	548971	PROB	3375	n/a	-999	-999	n/a	n/a	n/a	n/a	2	[2, 9, 8]	19	PAL1	2	R1162N
289.95	2.802	552370	PROB	2776	n/a	-999	-999	n/a	n/a	n/a	n/a	2	[7, 2, 8]	17	PAL1	2	R1162N
292.752	2.884	555172	PROB	2854	n/a	-999	-999	n/a	n/a	n/a	n/a	2	[5, 4, 3]	12	PAL1	2	R1162N
295.636	2.916	558056	PROB	2897	n/a	-999	-999	n/a	n/a	n/a	n/a	2	[6, 9, 3]	18	PAL1	2	R1162N
298.552	1.867	560972	PROB	1837	n/a	-999	-999	n/a	n/a	n/a	n/a	2	[4, 1, 1]	6	PAL1	2	R1162N
300.419	3.151	562839	PROB	3122	n/a	-999	-999	n/a	n/a	n/a	n/a	2	[4, 3, 5]	12	PAL1	2	R1162N
303.57	1.955	565990	PROB	1955	n/a	-999	-999	n/a	n/a	n/a	n/a	2	[1, 6, 1]	8	PAL1	2	R1162N
305.525	0.011	567945	STOP	n/a	n/a	-999	-999	n/a	n/a	n/a	n/a	2	[-999, -999, -999]	-999	PAL1	2	R1162N
305.536	0.0	567956	MATH_END	n/a	n/a	-999	-999	n/a	n/a	n/a	n/a	2	[0, 0, 0]	-999	PAL1	2	R1162N
305.536	0.017	567956	TEST_START	n/a	n/a	-999	-999	n/a	n/a	n/a	n/a	2	[0, 0, 0]	-999	PAL1	2	R1162N
305.553	0.883	567973	TEST_ORIENT	n/a	n/a	1	1	FUR	JAIL	FUR	JAIL	2	[0, 0, 0]	-999	PAL1	2	R1162N
306.436	0.002	568856	TEST_PROBE	n/a	wordpools/wordpool_EN.txt	1	1	FUR	JAIL	FUR	JAIL	2	[0, 0, 0]	-999	PAL1	2	R1162N
306.438	1.944	568858	REC_START	n/a	n/a	1	-999	n/a	JAIL	n/a	n/a	2	[0, 0, 0]	-999	PAL1	2	R1162N
308.382	3.055	570801	REC_EVENT	1944	n/a	1	1	FUR	JAIL	FUR	JAIL	2	[0, 0, 0]	-999	PAL1	2	R1162N
311.437	0.017	573856	REC_END	n/a	n/a	1	-999	n/a	n/a	n/a	n/a	2	[0, 0, 0]	-999	PAL1	2	R1162N
311.454	1.017	573873	TEST_ORIENT	n/a	n/a	4	2	CLOTH	SHARK	SHARK	CLOTH	2	[0, 0, 0]	-999	PAL1	2	R1162N
312.471	0.0	574890	REC_START	n/a	n/a	4	-999	n/a	SHARK	n/a	n/a	2	[0, 0, 0]	-999	PAL1	2	R1162N
312.471	1.217	574890	TEST_PROBE	n/a	wordpools/wordpool_EN.txt	4	2	CLOTH	SHARK	SHARK	CLOTH	2	[0, 0, 0]	-999	PAL1	2	R1162N
313.688	3.8	576107	REC_EVENT	1217	n/a	4	2	CLOTH	SHARK	SHARK	CLOTH	2	[0, 0, 0]	-999	PAL1	2	R1162N
317.488	0.017	579907	REC_END	n/a	n/a	4	-999	n/a	n/a	n/a	n/a	2	[0, 0, 0]	-999	PAL1	2	R1162N
317.505	0.983	579924	TEST_ORIENT	n/a	n/a	5	3	SPOON	GOLD	GOLD	SPOON	2	[0, 0, 0]	-999	PAL1	2	R1162N
318.488	0.001	580907	TEST_PROBE	n/a	wordpools/wordpool_EN.txt	5	3	SPOON	GOLD	GOLD	SPOON	2	[0, 0, 0]	-999	PAL1	2	R1162N
318.489	0.876	580908	REC_START	n/a	n/a	5	-999	n/a	GOLD	n/a	n/a	2	[0, 0, 0]	-999	PAL1	2	R1162N
319.365	4.131	581784	REC_EVENT	876	n/a	5	3	SPOON	GOLD	GOLD	SPOON	2	[0, 0, 0]	-999	PAL1	2	R1162N
323.496	0.01	585915	REC_END	n/a	n/a	5	-999	n/a	n/a	n/a	n/a	2	[0, 0, 0]	-999	PAL1	2	R1162N
323.506	0.933	585925	TEST_ORIENT	n/a	n/a	6	4	TRAY	HEART	TRAY	HEART	2	[0, 0, 0]	-999	PAL1	2	R1162N
324.439	0.001	586858	TEST_PROBE	n/a	wordpools/wordpool_EN.txt	6	4	TRAY	HEART	TRAY	HEART	2	[0, 0, 0]	-999	PAL1	2	R1162N
324.44	0.906	586859	REC_START	n/a	n/a	6	-999	n/a	HEART	n/a	n/a	2	[0, 0, 0]	-999	PAL1	2	R1162N
325.346	4.102	587765	REC_EVENT	906	n/a	6	4	TRAY	HEART	TRAY	HEART	2	[0, 0, 0]	-999	PAL1	2	R1162N
329.448	0.009	591866	REC_END	n/a	n/a	6	-999	n/a	n/a	n/a	n/a	2	[0, 0, 0]	-999	PAL1	2	R1162N
329.457	0.967	591875	TEST_ORIENT	n/a	n/a	3	5	DEER	TRAY	DEER	BOOK	2	[0, 0, 0]	-999	PAL1	2	R1162N
330.424	0.0	592842	TEST_PROBE	n/a	wordpools/wordpool_EN.txt	3	5	DEER	TRAY	DEER	BOOK	2	[0, 0, 0]	-999	PAL1	2	R1162N
330.424	4.236	592842	REC_START	n/a	n/a	3	-999	n/a	TRAY	n/a	n/a	2	[0, 0, 0]	-999	PAL1	2	R1162N
334.66	0.781	597078	REC_EVENT	4236	n/a	3	5	DEER	TRAY	DEER	BOOK	2	[0, 0, 0]	-999	PAL1	2	R1162N
335.441	0.017	597859	REC_END	n/a	n/a	3	-999	n/a	n/a	n/a	n/a	2	[0, 0, 0]	-999	PAL1	2	R1162N
335.458	0.983	597876	TEST_ORIENT	n/a	n/a	2	6	FILM	JUDGE	FILM	FUDGE	2	[0, 0, 0]	-999	PAL1	2	R1162N
336.441	0.001	598859	TEST_PROBE	n/a	wordpools/wordpool_EN.txt	2	6	FILM	JUDGE	FILM	FUDGE	2	[0, 0, 0]	-999	PAL1	2	R1162N
336.442	1.255	598860	REC_START	n/a	n/a	2	-999	n/a	JUDGE	n/a	n/a	2	[0, 0, 0]	-999	PAL1	2	R1162N
337.697	3.745	600115	REC_EVENT	1255	n/a	2	6	FILM	JUDGE	FILM	FUDGE	2	[0, 0, 0]	-999	PAL1	2	R1162N
341.442	2.003	603860	REC_END	n/a	n/a	2	-999	n/a	n/a	n/a	n/a	2	[0, 0, 0]	-999	PAL1	2	R1162N
343.445	10.449	605863	ENCODING_START	n/a	n/a	0	-999	n/a	n/a	n/a	n/a	3	[0, 0, 0]	-999	PAL1	2	R1162N
353.894	0.818	616311	STUDY_ORIENT	n/a	n/a	1	3	SEA	BAND	BAND	SEA	3	[0, 0, 0]	-999	PAL1	2	R1162N
354.712	5.018	617129	STUDY_PAIR	n/a	wordpools/wordpool_EN.txt	1	3	SEA	BAND	BAND	SEA	3	[0, 0, 0]	-999	PAL1	2	R1162N
359.73	1.0	622147	STUDY_ORIENT	n/a	n/a	2	4	ELF	SPEAR	SPEAR	ELF	3	[0, 0, 0]	-999	PAL1	2	R1162N
360.73	5.034	623147	STUDY_PAIR	n/a	wordpools/wordpool_EN.txt	2	4	ELF	SPEAR	SPEAR	ELF	3	[0, 0, 0]	-999	PAL1	2	R1162N
365.764	0.783	628180	STUDY_ORIENT	n/a	n/a	3	1	BEACH	BAND	BEACH	MAIL	3	[0, 0, 0]	-999	PAL1	2	R1162N
366.547	5.035	628963	STUDY_PAIR	n/a	wordpools/wordpool_EN.txt	3	1	BEACH	BAND	BEACH	MAIL	3	[0, 0, 0]	-999	PAL1	2	R1162N
371.582	0.866	633998	STUDY_ORIENT	n/a	n/a	4	2	CLAY	n/a	TANK	CLAY	3	[0, 0, 0]	-999	PAL1	2	R1162N
372.448	5.034	634864	STUDY_PAIR	n/a	wordpools/wordpool_EN.txt	4	2	CLAY	n/a	TANK	CLAY	3	[0, 0, 0]	-999	PAL1	2	R1162N
377.482	0.917	639898	STUDY_ORIENT	n/a	n/a	5	5	SKI	n/a	PIPE	SKI	3	[0, 0, 0]	-999	PAL1	2	R1162N
378.399	5.034	640815	STUDY_PAIR	n/a	wordpools/wordpool_EN.txt	5	5	SKI	n/a	PIPE	SKI	3	[0, 0, 0]	-999	PAL1	2	R1162N
383.433	0.883	645849	STUDY_ORIENT	n/a	n/a	6	6	FARM	n/a	WAND	FARM	3	[0, 0, 0]	-999	PAL1	2	R1162N
384.316	4.001	646731	STUDY_PAIR	n/a	wordpools/wordpool_EN.txt	6	6	FARM	n/a	WAND	FARM	3	[0, 0, 0]	-999	PAL1	2	R1162N
388.317	1.0	650732	START	n/a	n/a	-999	-999	n/a	n/a	n/a	n/a	3	[-999, -999, -999]	-999	PAL1	2	R1162N
389.317	0.017	651732	MATH_START	n/a	n/a	-999	-999	n/a	n/a	n/a	n/a	3	[0, 0, 0]	-999	PAL1	2	R1162N
389.334	5.851	651749	PROB	5831	n/a	-999	-999	n/a	n/a	n/a	n/a	3	[7, 6, 3]	16	PAL1	2	R1162N
395.185	2.917	657600	PROB	2892	n/a	-999	-999	n/a	n/a	n/a	n/a	3	[2, 7, 7]	16	PAL1	2	R1162N
398.102	4.217	660517	PROB	4191	n/a	-999	-999	n/a	n/a	n/a	n/a	3	[7, 5, 8]	20	PAL1	2	R1162N
402.319	5.569	664734	PROB	5535	n/a	-999	-999	n/a	n/a	n/a	n/a	3	[6, 7, 9]	22	PAL1	2	R1162N
407.888	2.261	670302	PROB	2261	n/a	-999	-999	n/a	n/a	n/a	n/a	3	[2, 7, 8]	17	PAL1	2	R1162N
410.149	0.005	672563	STOP	n/a	n/a	-999	-999	n/a	n/a	n/a	n/a	3	[-999, -999, -999]	-999	PAL1	2	R1162N
410.154	0.0	672568	MATH_END	n/a	n/a	-999	-999	n/a	n/a	n/a	n/a	3	[0, 0, 0]	-999	PAL1	2	R1162N
410.154	0.017	672568	TEST_START	n/a	n/a	-999	-999	n/a	n/a	n/a	n/a	3	[0, 0, 0]	-999	PAL1	2	R1162N
410.171	1.033	672585	TEST_ORIENT	n/a	n/a	3	1	BEACH	BAND	BEACH	MAIL	3	[0, 0, 0]	-999	PAL1	2	R1162N
411.204	0.0	673618	REC_START	n/a	n/a	3	-999	n/a	BAND	n/a	n/a	3	[0, 0, 0]	-999	PAL1	2	R1162N
411.204	2.431	673618	TEST_PROBE	n/a	wordpools/wordpool_EN.txt	3	1	BEACH	BAND	BEACH	MAIL	3	[0, 0, 0]	-999	PAL1	2	R1162N
413.635	2.586	676049	REC_EVENT	2431	n/a	3	1	BEACH	BAND	BEACH	MAIL	3	[0, 0, 0]	-999	PAL1	2	R1162N
416.221	0.017	678635	REC_END	n/a	n/a	3	-999	n/a	n/a	n/a	n/a	3	[0, 0, 0]	-999	PAL1	2	R1162N
416.238	0.984	678652	TEST_ORIENT	n/a	n/a	4	2	CLAY	n/a	TANK	CLAY	3	[0, 0, 0]	-999	PAL1	2	R1162N
417.222	0.0	679636	TEST_PROBE	n/a	wordpools/wordpool_EN.txt	4	2	CLAY	n/a	TANK	CLAY	3	[0, 0, 0]	-999	PAL1	2	R1162N
417.222	5.015	679636	REC_START	n/a	n/a	4	-999	n/a	n/a	n/a	n/a	3	[0, 0, 0]	-999	PAL1	2	R1162N
422.237	0.002	684650	REC_EVENT	5015	n/a	4	2	CLAY	<>	TANK	CLAY	3	[0, 0, 0]	-999	PAL1	2	R1162N
422.239	0.017	684652	REC_END	n/a	n/a	4	-999	n/a	n/a	n/a	n/a	3	[0, 0, 0]	-999	PAL1	2	R1162N
422.256	0.834	684669	TEST_ORIENT	n/a	n/a	1	3	SEA	BAND	BAND	SEA	3	[0, 0, 0]	-999	PAL1	2	R1162N
423.09	0.0	685503	REC_START	n/a	n/a	1	-999	n/a	BAND	n/a	n/a	3	[0, 0, 0]	-999	PAL1	2	R1162N
423.09	1.427	685503	TEST_PROBE	n/a	wordpools/wordpool_EN.txt	1	3	SEA	BAND	BAND	SEA	3	[0, 0, 0]	-999	PAL1	2	R1162N
424.517	3.59	686930	REC_EVENT	1427	n/a	1	3	SEA	BAND	BAND	SEA	3	[0, 0, 0]	-999	PAL1	2	R1162N
428.107	0.017	690520	REC_END	n/a	n/a	1	-999	n/a	n/a	n/a	n/a	3	[0, 0, 0]	-999	PAL1	2	R1162N
428.124	0.983	690537	TEST_ORIENT	n/a	n/a	2	4	ELF	SPEAR	SPEAR	ELF	3	[0, 0, 0]	-999	PAL1	2	R1162N
429.107	0.001	691520	TEST_PROBE	n/a	wordpools/wordpool_EN.txt	2	4	ELF	SPEAR	SPEAR	ELF	3	[0, 0, 0]	-999	PAL1	2	R1162N
429.108	1.259	691521	REC_START	n/a	n/a	2	-999	n/a	SPEAR	n/a	n/a	3	[0, 0, 0]	-999	PAL1	2	R1162N
430.367	3.765	692780	REC_EVENT	1259	n/a	2	4	ELF	SPEAR	SPEAR	ELF	3	[0, 0, 0]	-999	PAL1	2	R1162N
434.132	0.009	696545	REC_END	n/a	n/a	2	-999	n/a	n/a	n/a	n/a	3	[0, 0, 0]	-999	PAL1	2	R1162N
434.141	0.85	696554	TEST_ORIENT	n/a	n/a	5	5	SKI	n/a	PIPE	SKI	3	[0, 0, 0]	-999	PAL1	2	R1162N
434.991	0.001	697404	TEST_PROBE	n/a	wordpools/wordpool_EN.txt	5	5	SKI	n/a	PIPE	SKI	3	[0, 0, 0]	-999	PAL1	2	R1162N
434.992	5.008	697405	REC_START	n/a	n/a	5	-999	n/a	n/a	n/a	n/a	3	[0, 0, 0]	-999	PAL1	2	R1162N
440.0	0.001	702413	REC_END	n/a	n/a	5	-999	n/a	n/a	n/a	n/a	3	[0, 0, 0]	-999	PAL1	2	R1162N
440.001	0.008	702414	REC_EVENT	5009	n/a	5	5	SKI	<>	PIPE	SKI	3	[0, 0, 0]	-999	PAL1	2	R1162N
440.009	0.818	702422	TEST_ORIENT	n/a	n/a	6	6	FARM	n/a	WAND	FARM	3	[0, 0, 0]	-999	PAL1	2	R1162N
440.827	0.0	703239	TEST_PROBE	n/a	wordpools/wordpool_EN.txt	6	6	FARM	n/a	WAND	FARM	3	[0, 0, 0]	-999	PAL1	2	R1162N
440.827	5.023	703239	REC_START	n/a	n/a	6	-999	n/a	n/a	n/a	n/a	3	[0, 0, 0]	-999	PAL1	2	R1162N
445.85	0.004	708262	REC_END	n/a	n/a	6	-999	n/a	n/a	n/a	n/a	3	[0, 0, 0]	-999	PAL1	2	R1162N
445.854	1.415	708266	REC_EVENT	5027	n/a	6	6	FARM	<>	WAND	FARM	3	[0, 0, 0]	-999	PAL1	2	R1162N
447.269	10.444	709681	ENCODING_START	n/a	n/a	0	-999	n/a	n/a	n/a	n/a	4	[0, 0, 0]	-999	PAL1	2	R1162N
457.713	0.799	720125	STUDY_ORIENT	n/a	n/a	1	3	WHEEL	HOLE	HOLE	WHEEL	4	[0, 0, 0]	-999	PAL1	2	R1162N
458.512	5.034	720924	STUDY_PAIR	n/a	wordpools/wordpool_EN.txt	1	3	WHEEL	HOLE	HOLE	WHEEL	4	[0, 0, 0]	-999	PAL1	2	R1162N
463.546	0.784	725957	STUDY_ORIENT	n/a	n/a	2	4	BIRD	FLOOR	FLOOR	BIRD	4	[0, 0, 0]	-999	PAL1	2	R1162N
464.33	5.034	726741	STUDY_PAIR	n/a	wordpools/wordpool_EN.txt	2	4	BIRD	FLOOR	FLOOR	BIRD	4	[0, 0, 0]	-999	PAL1	2	R1162N
469.364	0.8	731775	STUDY_ORIENT	n/a	n/a	3	1	SCHOOL	n/a	EGG	SCHOOL	4	[0, 0, 0]	-999	PAL1	2	R1162N
470.164	5.034	732575	STUDY_PAIR	n/a	wordpools/wordpool_EN.txt	3	1	SCHOOL	n/a	EGG	SCHOOL	4	[0, 0, 0]	-999	PAL1	2	R1162N
475.198	1.0	737609	STUDY_ORIENT	n/a	n/a	4	6	SMILE	MOON	MOON	SMILE	4	[0, 0, 0]	-999	PAL1	2	R1162N
476.198	5.018	738609	STUDY_PAIR	n/a	wordpools/wordpool_EN.txt	4	6	SMILE	MOON	MOON	SMILE	4	[0, 0, 0]	-999	PAL1	2	R1162N
481.216	0.833	743626	STUDY_ORIENT	n/a	n/a	5	5	RIB	DESK	DESK	RIB	4	[0, 0, 0]	-999	PAL1	2	R1162N
482.049	5.018	744459	STUDY_PAIR	n/a	wordpools/wordpool_EN.txt	5	5	RIB	DESK	DESK	RIB	4	[0, 0, 0]	-999	PAL1	2	R1162N
487.067	0.95	749477	STUDY_ORIENT	n/a	n/a	6	2	FORT	LAND	LAND	FORT	4	[0, 0, 0]	-999	PAL1	2	R1162N
488.017	4.018	750427	STUDY_PAIR	n/a	wordpools/wordpool_EN.txt	6	2	FORT	LAND	LAND	FORT	4	[0, 0, 0]	-999	PAL1	2	R1162N
492.035	0.999	754445	START	n/a	n/a	-999	-999	n/a	n/a	n/a	n/a	4	[-999, -999, -999]	-999	PAL1	2	R1162N
493.034	0.017	755444	MATH_START	n/a	n/a	-999	-999	n/a	n/a	n/a	n/a	4	[0, 0, 0]	-999	PAL1	2	R1162N
493.051	3.535	755461	PROB	3514	n/a	-999	-999	n/a	n/a	n/a	n/a	4	[9, 4, 2]	15	PAL1	2	R1162N
496.586	2.4	758996	PROB	2371	n/a	-999	-999	n/a	n/a	n/a	n/a	4	[2, 6, 8]	16	PAL1	2	R1162N
498.986	2.768	761395	PROB	2748	n/a	-999	-999	n/a	n/a	n/a	n/a	4	[3, 5, 9]	18	PAL1	2	R1162N
501.754	4.683	764163	PROB	4659	n/a	-999	-999	n/a	n/a	n/a	n/a	4	[6, 6, 5]	17	PAL1	2	R1162N
506.437	3.05	768846	PROB	3032	n/a	-999	-999	n/a	n/a	n/a	n/a	4	[3, 5, 3]	11	PAL1	2	R1162N
509.487	2.678	771896	PROB	2678	n/a	-999	-999	n/a	n/a	n/a	n/a	4	[5, 6, 2]	13	PAL1	2	R1162N
512.165	0.006	774574	STOP	n/a	n/a	-999	-999	n/a	n/a	n/a	n/a	4	[-999, -999, -999]	-999	PAL1	2	R1162N
512.171	0.0	774580	MATH_END	n/a	n/a	-999	-999	n/a	n/a	n/a	n/a	4	[0, 0, 0]	-999	PAL1	2	R1162N
512.171	0.017	774580	TEST_START	n/a	n/a	-999	-999	n/a	n/a	n/a	n/a	4	[0, 0, 0]	-999	PAL1	2	R1162N
512.188	0.833	774597	TEST_ORIENT	n/a	n/a	3	1	SCHOOL	n/a	EGG	SCHOOL	4	[0, 0, 0]	-999	PAL1	2	R1162N
513.021	0.001	775430	TEST_PROBE	n/a	wordpools/wordpool_EN.txt	3	1	SCHOOL	n/a	EGG	SCHOOL	4	[0, 0, 0]	-999	PAL1	2	R1162N
513.022	5.008	775431	REC_START	n/a	n/a	3	-999	n/a	n/a	n/a	n/a	4	[0, 0, 0]	-999	PAL1	2	R1162N
518.03	0.001	780438	REC_END	n/a	n/a	3	-999	n/a	n/a	n/a	n/a	4	[0, 0, 0]	-999	PAL1	2	R1162N
518.031	0.008	780439	REC_EVENT	5009	n/a	3	1	SCHOOL	<>	EGG	SCHOOL	4	[0, 0, 0]	-999	PAL1	2	R1162N
518.039	0.983	780447	TEST_ORIENT	n/a	n/a	6	2	FORT	LAND	LAND	FORT	4	[0, 0, 0]	-999	PAL1	2	R1162N
519.022	0.001	781430	TEST_PROBE	n/a	wordpools/wordpool_EN.txt	6	2	FORT	LAND	LAND	FORT	4	[0, 0, 0]	-999	PAL1	2	R1162N
519.023	1.073	781431	REC_START	n/a	n/a	6	-999	n/a	LAND	n/a	n/a	4	[0, 0, 0]	-999	PAL1	2	R1162N
520.096	3.935	782504	REC_EVENT	1073	n/a	6	2	FORT	LAND	LAND	FORT	4	[0, 0, 0]	-999	PAL1	2	R1162N
524.031	0.009	786439	REC_END	n/a	n/a	6	-999	n/a	n/a	n/a	n/a	4	[0, 0, 0]	-999	PAL1	2	R1162N
524.04	0.818	786448	TEST_ORIENT	n/a	n/a	1	3	WHEEL	HOLE	HOLE	WHEEL	4	[0, 0, 0]	-999	PAL1	2	R1162N
524.858	0.001	787266	TEST_PROBE	n/a	wordpools/wordpool_EN.txt	1	3	WHEEL	HOLE	HOLE	WHEEL	4	[0, 0, 0]	-999	PAL1	2	R1162N
524.859	1.17	787267	REC_START	n/a	n/a	1	-999	n/a	HOLE	n/a	n/a	4	[0, 0, 0]	-999	PAL1	2	R1162N
526.029	3.854	788437	REC_EVENT	1170	n/a	1	3	WHEEL	HOLE	HOLE	WHEEL	4	[0, 0, 0]	-999	PAL1	2	R1162N
529.883	0.008	792291	REC_END	n/a	n/a	1	-999	n/a	n/a	n/a	n/a	4	[0, 0, 0]	-999	PAL1	2	R1162N
529.891	0.934	792299	TEST_ORIENT	n/a	n/a	2	4	BIRD	FLOOR	FLOOR	BIRD	4	[0, 0, 0]	-999	PAL1	2	R1162N
530.825	0.001	793233	TEST_PROBE	n/a	wordpools/wordpool_EN.txt	2	4	BIRD	FLOOR	FLOOR	BIRD	4	[0, 0, 0]	-999	PAL1	2	R1162N
530.826	1.088	793234	REC_START	n/a	n/a	2	-999	n/a	FLOOR	n/a	n/a	4	[0, 0, 0]	-999	PAL1	2	R1162N
531.914	3.912	794322	REC_EVENT	1088	n/a	2	4	BIRD	FLOOR	FLOOR	BIRD	4	[0, 0, 0]	-999	PAL1	2	R1162N
535.826	0.017	798233	REC_END	n/a	n/a	2	-999	n/a	n/a	n/a	n/a	4	[0, 0, 0]	-999	PAL1	2	R1162N
535.843	0.867	798250	TEST_ORIENT	n/a	n/a	5	5	RIB	DESK	DESK	RIB	4	[0, 0, 0]	-999	PAL1	2	R1162N
536.71	0.0	799117	TEST_PROBE	n/a	wordpools/wordpool_EN.txt	5	5	RIB	DESK	DESK	RIB	4	[0, 0, 0]	-999	PAL1	2	R1162N
536.71	1.175	799117	REC_START	n/a	n/a	5	-999	n/a	DESK	n/a	n/a	4	[0, 0, 0]	-999	PAL1	2	R1162N
537.885	3.842	800292	REC_EVENT	1175	n/a	5	5	RIB	DESK	DESK	RIB	4	[0, 0, 0]	-999	PAL1	2	R1162N
541.727	0.017	804134	REC_END	n/a	n/a	5	-999	n/a	n/a	n/a	n/a	4	[0, 0, 0]	-999	PAL1	2	R1162N
541.744	0.983	804151	TEST_ORIENT	n/a	n/a	4	6	SMILE	MOON	MOON	SMILE	4	[0, 0, 0]	-999	PAL1	2	R1162N
542.727	0.001	805134	TEST_PROBE	n/a	wordpools/wordpool_EN.txt	4	6	SMILE	MOON	MOON	SMILE	4	[0, 0, 0]	-999	PAL1	2	R1162N
542.728	1.315	805135	REC_START	n/a	n/a	4	-999	n/a	MOON	n/a	n/a	4	[0, 0, 0]	-999	PAL1	2	R1162N
544.043	3.693	806450	REC_EVENT	1315	n/a	4	6	SMILE	MOON	MOON	SMILE	4	[0, 0, 0]	-999	PAL1	2	R1162N
547.736	1.725	810143	REC_END	n/a	n/a	4	-999	n/a	n/a	n/a	n/a	4	[0, 0, 0]	-999	PAL1	2	R1162N
549.461	10.452	811868	ENCODING_START	n/a	n/a	0	-999	n/a	n/a	n/a	n/a	5	[0, 0, 0]	-999	PAL1	2	R1162N
559.913	0.801	822319	STUDY_ORIENT	n/a	n/a	1	1	WEED	SEA	WEED	SHOE	5	[0, 0, 0]	-999	PAL1	2	R1162N
560.714	5.034	823120	STUDY_PAIR	n/a	wordpools/wordpool_EN.txt	1	1	WEED	SEA	WEED	SHOE	5	[0, 0, 0]	-999	PAL1	2	R1162N
565.748	0.85	828154	STUDY_ORIENT	n/a	n/a	2	6	STEAM	n/a	BROOM	STEAM	5	[0, 0, 0]	-999	PAL1	2	R1162N
566.598	5.034	829004	STUDY_PAIR	n/a	wordpools/wordpool_EN.txt	2	6	STEAM	n/a	BROOM	STEAM	5	[0, 0, 0]	-999	PAL1	2	R1162N
571.632	0.783	834038	STUDY_ORIENT	n/a	n/a	3	5	CORD	WALL	MOTH	CORD	5	[0, 0, 0]	-999	PAL1	2	R1162N
572.415	5.034	834821	STUDY_PAIR	n/a	wordpools/wordpool_EN.txt	3	5	CORD	WALL	MOTH	CORD	5	[0, 0, 0]	-999	PAL1	2	R1162N
577.449	0.933	839854	STUDY_ORIENT	n/a	n/a	4	4	WALL	n/a	WALL	FISH	5	[0, 0, 0]	-999	PAL1	2	R1162N
578.382	5.018	840787	STUDY_PAIR	n/a	wordpools/wordpool_EN.txt	4	4	WALL	n/a	WALL	FISH	5	[0, 0, 0]	-999	PAL1	2	R1162N
583.4	0.933	845805	STUDY_ORIENT	n/a	n/a	5	3	FLEA	n/a	GUARD	FLEA	5	[0, 0, 0]	-999	PAL1	2	R1162N
584.333	5.018	846738	STUDY_PAIR	n/a	wordpools/wordpool_EN.txt	5	3	FLEA	n/a	GUARD	FLEA	5	[0, 0, 0]	-999	PAL1	2	R1162N
589.351	1.0	851756	STUDY_ORIENT	n/a	n/a	6	2	DOCK	n/a	NOSE	DOCK	5	[0, 0, 0]	-999	PAL1	2	R1162N
590.351	4.018	852756	STUDY_PAIR	n/a	wordpools/wordpool_EN.txt	6	2	DOCK	n/a	NOSE	DOCK	5	[0, 0, 0]	-999	PAL1	2	R1162N
594.369	0.999	856773	START	n/a	n/a	-999	-999	n/a	n/a	n/a	n/a	5	[-999, -999, -999]	-999	PAL1	2	R1162N
595.368	0.017	857772	MATH_START	n/a	n/a	-999	-999	n/a	n/a	n/a	n/a	5	[0, 0, 0]	-999	PAL1	2	R1162N
595.385	3.951	857789	PROB	3924	n/a	-999	-999	n/a	n/a	n/a	n/a	5	[6, 5, 8]	19	PAL1	2	R1162N
599.336	5.101	861740	PROB	5077	n/a	-999	-999	n/a	n/a	n/a	n/a	5	[3, 7, 9]	19	PAL1	2	R1162N
604.437	3.235	866841	PROB	3201	n/a	-999	-999	n/a	n/a	n/a	n/a	5	[7, 3, 6]	16	PAL1	2	R1162N
607.672	3.383	870076	PROB	3349	n/a	-999	-999	n/a	n/a	n/a	n/a	5	[7, 8, 7]	22	PAL1	2	R1162N
611.055	3.2	873458	PROB	3174	n/a	-999	-999	n/a	n/a	n/a	n/a	5	[6, 3, 8]	17	PAL1	2	R1162N
614.255	5.214	876658	PROB	5214	n/a	-999	-999	n/a	n/a	n/a	n/a	5	[5, 4, 5]	14	PAL1	2	R1162N
619.469	0.004	881872	STOP	n/a	n/a	-999	-999	n/a	n/a	n/a	n/a	5	[-999, -999, -999]	-999	PAL1	2	R1162N
619.473	0.0	881876	MATH_END	n/a	n/a	-999	-999	n/a	n/a	n/a	n/a	5	[0, 0, 0]	-999	PAL1	2	R1162N
619.473	0.016	881876	TEST_START	n/a	n/a	-999	-999	n/a	n/a	n/a	n/a	5	[0, 0, 0]	-999	PAL1	2	R1162N
619.489	0.967	881892	TEST_ORIENT	n/a	n/a	1	1	WEED	SEA	WEED	SHOE	5	[0, 0, 0]	-999	PAL1	2	R1162N
620.456	0.0	882859	TEST_PROBE	n/a	wordpools/wordpool_EN.txt	1	1	WEED	SEA	WEED	SHOE	5	[0, 0, 0]	-999	PAL1	2	R1162N
620.456	1.277	882859	REC_START	n/a	n/a	1	-999	n/a	SEA	n/a	n/a	5	[0, 0, 0]	-999	PAL1	2	R1162N
621.733	3.732	884136	REC_EVENT	1277	n/a	1	1	WEED	SEA	WEED	SHOE	5	[0, 0, 0]	-999	PAL1	2	R1162N
625.465	0.009	887868	REC_END	n/a	n/a	1	-999	n/a	n/a	n/a	n/a	5	[0, 0, 0]	-999	PAL1	2	R1162N
625.474	0.9	887877	TEST_ORIENT	n/a	n/a	6	2	DOCK	n/a	NOSE	DOCK	5	[0, 0, 0]	-999	PAL1	2	R1162N
626.374	0.0	888777	TEST_PROBE	n/a	wordpools/wordpool_EN.txt	6	2	DOCK	n/a	NOSE	DOCK	5	[0, 0, 0]	-999	PAL1	2	R1162N
626.374	5.015	888777	REC_START	n/a	n/a	6	-999	n/a	n/a	n/a	n/a	5	[0, 0, 0]	-999	PAL1	2	R1162N
631.389	0.002	893791	REC_EVENT	5015	n/a	6	2	DOCK	<>	NOSE	DOCK	5	[0, 0, 0]	-999	PAL1	2	R1162N
631.391	0.017	893793	REC_END	n/a	n/a	6	-999	n/a	n/a	n/a	n/a	5	[0, 0, 0]	-999	PAL1	2	R1162N
631.408	1.034	893810	TEST_ORIENT	n/a	n/a	5	3	FLEA	n/a	GUARD	FLEA	5	[0, 0, 0]	-999	PAL1	2	R1162N
632.442	0.0	894844	TEST_PROBE	n/a	wordpools/wordpool_EN.txt	5	3	FLEA	n/a	GUARD	FLEA	5	[0, 0, 0]	-999	PAL1	2	R1162N
632.442	5.015	894844	REC_START	n/a	n/a	5	-999	n/a	n/a	n/a	n/a	5	[0, 0, 0]	-999	PAL1	2	R1162N
637.457	0.002	899859	REC_EVENT	5015	n/a	5	3	FLEA	<>	GUARD	FLEA	5	[0, 0, 0]	-999	PAL1	2	R1162N
637.459	0.017	899861	REC_END	n/a	n/a	5	-999	n/a	n/a	n/a	n/a	5	[0, 0, 0]	-999	PAL1	2	R1162N
637.476	0.817	899878	TEST_ORIENT	n/a	n/a	4	4	WALL	n/a	WALL	FISH	5	[0, 0, 0]	-999	PAL1	2	R1162N
638.293	0.0	900695	TEST_PROBE	n/a	wordpools/wordpool_EN.txt	4	4	WALL	n/a	WALL	FISH	5	[0, 0, 0]	-999	PAL1	2	R1162N
638.293	5.015	900695	REC_START	n/a	n/a	4	-999	n/a	n/a	n/a	n/a	5	[0, 0, 0]	-999	PAL1	2	R1162N
643.308	0.002	905710	REC_EVENT	5015	n/a	4	4	WALL	<>	WALL	FISH	5	[0, 0, 0]	-999	PAL1	2	R1162N
643.31	0.017	905712	REC_END	n/a	n/a	4	-999	n/a	n/a	n/a	n/a	5	[0, 0, 0]	-999	PAL1	2	R1162N
643.327	0.817	905729	TEST_ORIENT	n/a	n/a	3	5	CORD	WALL	MOTH	CORD	5	[0, 0, 0]	-999	PAL1	2	R1162N
644.144	0.0	906546	TEST_PROBE	n/a	wordpools/wordpool_EN.txt	3	5	CORD	WALL	MOTH	CORD	5	[0, 0, 0]	-999	PAL1	2	R1162N
644.144	2.563	906546	REC_START	n/a	n/a	3	-999	n/a	WALL	n/a	n/a	5	[0, 0, 0]	-999	PAL1	2	R1162N
646.707	2.454	909109	REC_EVENT	2563	n/a	3	5	CORD	WALL	MOTH	CORD	5	[0, 0, 0]	-999	PAL1	2	R1162N
649.161	0.017	911562	REC_END	n/a	n/a	3	-999	n/a	n/a	n/a	n/a	5	[0, 0, 0]	-999	PAL1	2	R1162N
649.178	0.85	911579	TEST_ORIENT	n/a	n/a	2	6	STEAM	n/a	BROOM	STEAM	5	[0, 0, 0]	-999	PAL1	2	R1162N
650.028	0.001	912429	TEST_PROBE	n/a	wordpools/wordpool_EN.txt	2	6	STEAM	n/a	BROOM	STEAM	5	[0, 0, 0]	-999	PAL1	2	R1162N
650.029	5.021	912430	REC_START	n/a	n/a	2	-999	n/a	n/a	n/a	n/a	5	[0, 0, 0]	-999	PAL1	2	R1162N
655.05	0.003	917451	REC_EVENT	5021	n/a	2	6	STEAM	<>	BROOM	STEAM	5	[0, 0, 0]	-999	PAL1	2	R1162N
655.053	27.04	917454	REC_END	n/a	n/a	2	-999	n/a	n/a	n/a	n/a	5	[0, 0, 0]	-999	PAL1	2	R1162N
682.093	10.442	944493	ENCODING_START	n/a	n/a	0	-999	n/a	n/a	n/a	n/a	6	[0, 0, 0]	-999	PAL1	2	R1162N
692.535	0.817	954934	STUDY_ORIENT	n/a	n/a	1	1	MOUSE	n/a	MOUSE	GRAPE	6	[0, 0, 0]	-999	PAL1	2	R1162N
693.352	5.034	955751	STUDY_PAIR	n/a	wordpools/wordpool_EN.txt	1	1	MOUSE	n/a	MOUSE	GRAPE	6	[0, 0, 0]	-999	PAL1	2	R1162N
698.386	0.867	960785	STUDY_ORIENT	n/a	n/a	2	6	STREET	n/a	STREET	RAKE	6	[0, 0, 0]	-999	PAL1	2	R1162N
699.253	5.034	961652	STUDY_PAIR	n/a	wordpools/wordpool_EN.txt	2	6	STREET	n/a	STREET	RAKE	6	[0, 0, 0]	-999	PAL1	2	R1162N
704.287	0.95	966686	STUDY_ORIENT	n/a	n/a	3	3	FOAM	n/a	FOAM	BANK	6	[0, 0, 0]	-999	PAL1	2	R1162N
705.237	5.018	967636	STUDY_PAIR	n/a	wordpools/wordpool_EN.txt	3	3	FOAM	n/a	FOAM	BANK	6	[0, 0, 0]	-999	PAL1	2	R1162N
710.255	0.933	972653	STUDY_ORIENT	n/a	n/a	4	2	AXE	n/a	BAG	AXE	6	[0, 0, 0]	-999	PAL1	2	R1162N
711.188	5.018	973586	STUDY_PAIR	n/a	wordpools/wordpool_EN.txt	4	2	AXE	n/a	BAG	AXE	6	[0, 0, 0]	-999	PAL1	2	R1162N
716.206	0.917	978604	STUDY_ORIENT	n/a	n/a	5	5	TEETH	TEA	TEETH	TEA	6	[0, 0, 0]	-999	PAL1	2	R1162N
717.123	5.034	979521	STUDY_PAIR	n/a	wordpools/wordpool_EN.txt	5	5	TEETH	TEA	TEETH	TEA	6	[0, 0, 0]	-999	PAL1	2	R1162N
722.157	0.85	984555	STUDY_ORIENT	n/a	n/a	6	4	EEL	FLARE	FLAME	EEL	6	[0, 0, 0]	-999	PAL1	2	R1162N
723.007	4.018	985405	STUDY_PAIR	n/a	wordpools/wordpool_EN.txt	6	4	EEL	FLARE	FLAME	EEL	6	[0, 0, 0]	-999	PAL1	2	R1162N
727.025	0.999	989422	START	n/a	n/a	-999	-999	n/a	n/a	n/a	n/a	6	[-999, -999, -999]	-999	PAL1	2	R1162N
728.024	0.017	990421	MATH_START	n/a	n/a	-999	-999	n/a	n/a	n/a	n/a	6	[0, 0, 0]	-999	PAL1	2	R1162N
728.041	4.552	990438	PROB	4533	n/a	-999	-999	n/a	n/a	n/a	n/a	6	[4, 9, 3]	16	PAL1	2	R1162N
732.593	3.566	994990	PROB	3532	n/a	-999	-999	n/a	n/a	n/a	n/a	6	[1, 4, 7]	12	PAL1	2	R1162N
736.159	2.668	998556	PROB	2639	n/a	-999	-999	n/a	n/a	n/a	n/a	6	[2, 2, 8]	12	PAL1	2	R1162N
738.827	2.383	1001224	PROB	2362	n/a	-999	-999	n/a	n/a	n/a	n/a	6	[7, 1, 7]	15	PAL1	2	R1162N
741.21	6.412	1003607	PROB	6412	n/a	-999	-999	n/a	n/a	n/a	n/a	6	[7, 9, 9]	24	PAL1	2	R1162N
747.622	0.007	1010018	STOP	n/a	n/a	-999	-999	n/a	n/a	n/a	n/a	6	[-999, -999, -999]	-999	PAL1	2	R1162N
747.629	0.0	1010025	MATH_END	n/a	n/a	-999	-999	n/a	n/a	n/a	n/a	6	[0, 0, 0]	-999	PAL1	2	R1162N
747.629	0.016	1010025	TEST_START	n/a	n/a	-999	-999	n/a	n/a	n/a	n/a	6	[0, 0, 0]	-999	PAL1	2	R1162N
747.645	1.034	1010041	TEST_ORIENT	n/a	n/a	1	1	MOUSE	n/a	MOUSE	GRAPE	6	[0, 0, 0]	-999	PAL1	2	R1162N
748.679	0.001	1011075	TEST_PROBE	n/a	wordpools/wordpool_EN.txt	1	1	MOUSE	n/a	MOUSE	GRAPE	6	[0, 0, 0]	-999	PAL1	2	R1162N
748.68	5.021	1011076	REC_START	n/a	n/a	1	-999	n/a	n/a	n/a	n/a	6	[0, 0, 0]	-999	PAL1	2	R1162N
753.701	0.003	1016097	REC_EVENT	5021	n/a	1	1	MOUSE	<>	MOUSE	GRAPE	6	[0, 0, 0]	-999	PAL1	2	R1162N
753.704	0.009	1016100	REC_END	n/a	n/a	1	-999	n/a	n/a	n/a	n/a	6	[0, 0, 0]	-999	PAL1	2	R1162N
753.713	0.799	1016109	TEST_ORIENT	n/a	n/a	4	2	AXE	n/a	BAG	AXE	6	[0, 0, 0]	-999	PAL1	2	R1162N
754.512	0.001	1016908	TEST_PROBE	n/a	wordpools/wordpool_EN.txt	4	2	AXE	n/a	BAG	AXE	6	[0, 0, 0]	-999	PAL1	2	R1162N
754.513	5.008	1016909	REC_START	n/a	n/a	4	-999	n/a	n/a	n/a	n/a	6	[0, 0, 0]	-999	PAL1	2	R1162N
759.521	0.001	1021917	REC_END	n/a	n/a	4	-999	n/a	n/a	n/a	n/a	6	[0, 0, 0]	-999	PAL1	2	R1162N
759.522	0.008	1021918	REC_EVENT	5009	n/a	4	2	AXE	<>	BAG	AXE	6	[0, 0, 0]	-999	PAL1	2	R1162N
759.53	0.917	1021926	TEST_ORIENT	n/a	n/a	3	3	FOAM	n/a	FOAM	BANK	6	[0, 0, 0]	-999	PAL1	2	R1162N
760.447	0.0	1022843	TEST_PROBE	n/a	wordpools/wordpool_EN.txt	3	3	FOAM	n/a	FOAM	BANK	6	[0, 0, 0]	-999	PAL1	2	R1162N
760.447	5.015	1022843	REC_START	n/a	n/a	3	-999	n/a	n/a	n/a	n/a	6	[0, 0, 0]	-999	PAL1	2	R1162N
765.462	0.002	1027857	REC_EVENT	5015	n/a	3	3	FOAM	<>	FOAM	BANK	6	[0, 0, 0]	-999	PAL1	2	R1162N
765.464	0.017	1027859	REC_END	n/a	n/a	3	-999	n/a	n/a	n/a	n/a	6	[0, 0, 0]	-999	PAL1	2	R1162N
765.481	0.983	1027876	TEST_ORIENT	n/a	n/a	6	4	EEL	FLARE	FLAME	EEL	6	[0, 0, 0]	-999	PAL1	2	R1162N
766.464	0.001	1028859	TEST_PROBE	n/a	wordpools/wordpool_EN.txt	6	4	EEL	FLARE	FLAME	EEL	6	[0, 0, 0]	-999	PAL1	2	R1162N
766.465	1.635	1028860	REC_START	n/a	n/a	6	-999	n/a	FLARE	n/a	n/a	6	[0, 0, 0]	-999	PAL1	2	R1162N
768.1	3.373	1030495	REC_EVENT	1635	n/a	6	4	EEL	FLARE	FLAME	EEL	6	[0, 0, 0]	-999	PAL1	2	R1162N
771.473	0.009	1033868	REC_END	n/a	n/a	6	-999	n/a	n/a	n/a	n/a	6	[0, 0, 0]	-999	PAL1	2	R1162N
771.482	0.9	1033877	TEST_ORIENT	n/a	n/a	5	5	TEETH	TEA	TEETH	TEA	6	[0, 0, 0]	-999	PAL1	2	R1162N
772.382	0.001	1034777	TEST_PROBE	n/a	wordpools/wordpool_EN.txt	5	5	TEETH	TEA	TEETH	TEA	6	[0, 0, 0]	-999	PAL1	2	R1162N
772.383	1.2	1034778	REC_START	n/a	n/a	5	-999	n/a	TEA	n/a	n/a	6	[0, 0, 0]	-999	PAL1	2	R1162N
773.583	3.824	1035978	REC_EVENT	1200	n/a	5	5	TEETH	TEA	TEETH	TEA	6	[0, 0, 0]	-999	PAL1	2	R1162N
777.407	0.009	1039802	REC_END	n/a	n/a	5	-999	n/a	n/a	n/a	n/a	6	[0, 0, 0]	-999	PAL1	2	R1162N
777.416	0.867	1039811	TEST_ORIENT	n/a	n/a	2	6	STREET	n/a	STREET	RAKE	6	[0, 0, 0]	-999	PAL1	2	R1162N
778.283	0.001	1040678	TEST_PROBE	n/a	wordpools/wordpool_EN.txt	2	6	STREET	n/a	STREET	RAKE	6	[0, 0, 0]	-999	PAL1	2	R1162N
778.284	5.021	1040679	REC_START	n/a	n/a	2	-999	n/a	n/a	n/a	n/a	6	[0, 0, 0]	-999	PAL1	2	R1162N
783.305	0.003	1045699	REC_EVENT	5021	n/a	2	6	STREET	<>	STREET	RAKE	6	[0, 0, 0]	-999	PAL1	2	R1162N
783.308	108.378	1045702	REC_END	n/a	n/a	2	-999	n/a	n/a	n/a	n/a	6	[0, 0, 0]	-999	PAL1	2	R1162N
891.686	10.451	1154075	ENCODING_START	n/a	n/a	0	-999	n/a	n/a	n/a	n/a	7	[0, 0, 0]	-999	PAL1	2	R1162N
902.137	0.867	1164525	STUDY_ORIENT	n/a	n/a	1	3	SKY	n/a	SKY	CROWN	7	[0, 0, 0]	-999	PAL1	2	R1162N
903.004	5.034	1165392	STUDY_PAIR	n/a	wordpools/wordpool_EN.txt	1	3	SKY	n/a	SKY	CROWN	7	[0, 0, 0]	-999	PAL1	2	R1162N
908.038	0.9	1170426	STUDY_ORIENT	n/a	n/a	2	4	SUN	n/a	WING	SUN	7	[0, 0, 0]	-999	PAL1	2	R1162N
908.938	5.018	1171326	STUDY_PAIR	n/a	wordpools/wordpool_EN.txt	2	4	SUN	n/a	WING	SUN	7	[0, 0, 0]	-999	PAL1	2	R1162N
913.956	0.784	1176343	STUDY_ORIENT	n/a	n/a	3	5	GATE	n/a	STOVE	GATE	7	[0, 0, 0]	-999	PAL1	2	R1162N
914.74	5.018	1177127	STUDY_PAIR	n/a	wordpools/wordpool_EN.txt	3	5	GATE	n/a	STOVE	GATE	7	[0, 0, 0]	-999	PAL1	2	R1162N
919.758	0.782	1182145	STUDY_ORIENT	n/a	n/a	4	6	BADGE	n/a	NEST	BADGE	7	[0, 0, 0]	-999	PAL1	2	R1162N
920.54	5.018	1182927	STUDY_PAIR	n/a	wordpools/wordpool_EN.txt	4	6	BADGE	n/a	NEST	BADGE	7	[0, 0, 0]	-999	PAL1	2	R1162N
925.558	0.933	1187945	STUDY_ORIENT	n/a	n/a	5	1	TOY	DUCK	TOY	DUCK	7	[0, 0, 0]	-999	PAL1	2	R1162N
926.491	5.018	1188878	STUDY_PAIR	n/a	wordpools/wordpool_EN.txt	5	1	TOY	DUCK	TOY	DUCK	7	[0, 0, 0]	-999	PAL1	2	R1162N
931.509	0.9	1193896	STUDY_ORIENT	n/a	n/a	6	2	STEAK	n/a	STEAK	FLAG	7	[0, 0, 0]	-999	PAL1	2	R1162N
932.409	4.018	1194796	STUDY_PAIR	n/a	wordpools/wordpool_EN.txt	6	2	STEAK	n/a	STEAK	FLAG	7	[0, 0, 0]	-999	PAL1	2	R1162N
936.427	0.999	1198813	START	n/a	n/a	-999	-999	n/a	n/a	n/a	n/a	7	[-999, -999, -999]	-999	PAL1	2	R1162N
937.426	0.017	1199812	MATH_START	n/a	n/a	-999	-999	n/a	n/a	n/a	n/a	7	[0, 0, 0]	-999	PAL1	2	R1162N
937.443	3.101	1199829	PROB	3066	n/a	-999	-999	n/a	n/a	n/a	n/a	7	[6, 8, 2]	16	PAL1	2	R1162N
940.544	4.45	1202930	PROB	4421	n/a	-999	-999	n/a	n/a	n/a	n/a	7	[6, 7, 7]	20	PAL1	2	R1162N
944.994	4.201	1207380	PROB	4171	n/a	-999	-999	n/a	n/a	n/a	n/a	7	[9, 6, 6]	21	PAL1	2	R1162N
949.195	3.568	1211581	PROB	3539	n/a	-999	-999	n/a	n/a	n/a	n/a	7	[3, 6, 1]	10	PAL1	2	R1162N
952.763	3.633	1215148	PROB	3610	n/a	-999	-999	n/a	n/a	n/a	n/a	7	[4, 1, 2]	7	PAL1	2	R1162N
956.396	2.969	1218781	PROB	2969	n/a	-999	-999	n/a	n/a	n/a	n/a	7	[6, 8, 2]	16	PAL1	2	R1162N
959.365	0.015	1221750	STOP	n/a	n/a	-999	-999	n/a	n/a	n/a	n/a	7	[-999, -999, -999]	-999	PAL1	2	R1162N
959.38	0.0	1221765	MATH_END	n/a	n/a	-999	-999	n/a	n/a	n/a	n/a	7	[0, 0, 0]	-999	PAL1	2	R1162N
959.38	0.017	1221765	TEST_START	n/a	n/a	-999	-999	n/a	n/a	n/a	n/a	7	[0, 0, 0]	-999	PAL1	2	R1162N
959.397	0.833	1221782	TEST_ORIENT	n/a	n/a	5	1	TOY	DUCK	TOY	DUCK	7	[0, 0, 0]	-999	PAL1	2	R1162N
960.23	0.001	1222615	TEST_PROBE	n/a	wordpools/wordpool_EN.txt	5	1	TOY	DUCK	TOY	DUCK	7	[0, 0, 0]	-999	PAL1	2	R1162N
960.231	1.029	1222616	REC_START	n/a	n/a	5	-999	n/a	DUCK	n/a	n/a	7	[0, 0, 0]	-999	PAL1	2	R1162N
961.26	3.979	1223645	REC_EVENT	1029	n/a	5	1	TOY	DUCK	TOY	DUCK	7	[0, 0, 0]	-999	PAL1	2	R1162N
965.239	0.009	1227624	REC_END	n/a	n/a	5	-999	n/a	n/a	n/a	n/a	7	[0, 0, 0]	-999	PAL1	2	R1162N
965.248	0.967	1227633	TEST_ORIENT	n/a	n/a	6	2	STEAK	n/a	STEAK	FLAG	7	[0, 0, 0]	-999	PAL1	2	R1162N
966.215	0.0	1228600	TEST_PROBE	n/a	wordpools/wordpool_EN.txt	6	2	STEAK	n/a	STEAK	FLAG	7	[0, 0, 0]	-999	PAL1	2	R1162N
966.215	5.015	1228600	REC_START	n/a	n/a	6	-999	n/a	n/a	n/a	n/a	7	[0, 0, 0]	-999	PAL1	2	R1162N
971.23	0.002	1233614	REC_EVENT	5015	n/a	6	2	STEAK	<>	STEAK	FLAG	7	[0, 0, 0]	-999	PAL1	2	R1162N
971.232	0.017	1233616	REC_END	n/a	n/a	6	-999	n/a	n/a	n/a	n/a	7	[0, 0, 0]	-999	PAL1	2	R1162N
971.249	0.883	1233633	TEST_ORIENT	n/a	n/a	1	3	SKY	n/a	SKY	CROWN	7	[0, 0, 0]	-999	PAL1	2	R1162N
972.132	0.001	1234516	TEST_PROBE	n/a	wordpools/wordpool_EN.txt	1	3	SKY	n/a	SKY	CROWN	7	[0, 0, 0]	-999	PAL1	2	R1162N
972.133	5.008	1234517	REC_START	n/a	n/a	1	-999	n/a	n/a	n/a	n/a	7	[0, 0, 0]	-999	PAL1	2	R1162N
977.141	0.001	1239525	REC_END	n/a	n/a	1	-999	n/a	n/a	n/a	n/a	7	[0, 0, 0]	-999	PAL1	2	R1162N
977.142	0.008	1239526	REC_EVENT	5009	n/a	1	3	SKY	<>	SKY	CROWN	7	[0, 0, 0]	-999	PAL1	2	R1162N
977.15	0.95	1239534	TEST_ORIENT	n/a	n/a	2	4	SUN	n/a	WING	SUN	7	[0, 0, 0]	-999	PAL1	2	R1162N
978.1	0.001	1240484	TEST_PROBE	n/a	wordpools/wordpool_EN.txt	2	4	SUN	n/a	WING	SUN	7	[0, 0, 0]	-999	PAL1	2	R1162N
978.101	5.015	1240485	REC_START	n/a	n/a	2	-999	n/a	n/a	n/a	n/a	7	[0, 0, 0]	-999	PAL1	2	R1162N
983.116	0.001	1245500	REC_EVENT	5015	n/a	2	4	SUN	<>	WING	SUN	7	[0, 0, 0]	-999	PAL1	2	R1162N
983.117	0.017	1245501	REC_END	n/a	n/a	2	-999	n/a	n/a	n/a	n/a	7	[0, 0, 0]	-999	PAL1	2	R1162N
983.134	0.917	1245518	TEST_ORIENT	n/a	n/a	3	5	GATE	n/a	STOVE	GATE	7	[0, 0, 0]	-999	PAL1	2	R1162N
984.051	0.001	1246435	TEST_PROBE	n/a	wordpools/wordpool_EN.txt	3	5	GATE	n/a	STOVE	GATE	7	[0, 0, 0]	-999	PAL1	2	R1162N
984.052	5.016	1246436	REC_START	n/a	n/a	3	-999	n/a	n/a	n/a	n/a	7	[0, 0, 0]	-999	PAL1	2	R1162N
989.068	0.005	1251452	REC_END	n/a	n/a	3	-999	n/a	n/a	n/a	n/a	7	[0, 0, 0]	-999	PAL1	2	R1162N
989.073	0.012	1251457	REC_EVENT	5021	n/a	3	5	GATE	<>	STOVE	GATE	7	[0, 0, 0]	-999	PAL1	2	R1162N
989.085	0.817	1251469	TEST_ORIENT	n/a	n/a	4	6	BADGE	n/a	NEST	BADGE	7	[0, 0, 0]	-999	PAL1	2	R1162N
989.902	0.001	1252285	TEST_PROBE	n/a	wordpools/wordpool_EN.txt	4	6	BADGE	n/a	NEST	BADGE	7	[0, 0, 0]	-999	PAL1	2	R1162N
989.903	5.015	1252286	REC_START	n/a	n/a	4	-999	n/a	n/a	n/a	n/a	7	[0, 0, 0]	-999	PAL1	2	R1162N
994.918	0.001	1257301	REC_EVENT	5015	n/a	4	6	BADGE	<>	NEST	BADGE	7	[0, 0, 0]	-999	PAL1	2	R1162N
994.919	25987.672	1257302	REC_END	n/a	n/a	4	-999	n/a	n/a	n/a	n/a	7	[0, 0, 0]	-999	PAL1	2	R1162N
26982.591	0.0	-1	SESSION_SKIPPED	n/a	n/a	4	-999	n/a	n/a	n/a	n/a	7	[0, 0, 0]	-999	PAL1	2	R1162N
